Time,Vectornav.seq,Vectornav.stamp.secs,Vectornav.stamp.nsecs,Vectornav.frame_id,imu.header.seq,imu.header.stamp.secs,imu.header.stamp.nsecs,imu.header.frame_id,imu.orientation.x,imu.orientation.y,imu.orientation.z,imu.orientation.w,imu.orientation_covariance,imu.angular_velocity.x,imu.angular_velocity.y,imu.angular_velocity.z,imu.angular_velocity_covariance,imu.linear_acceleration.x,imu.linear_acceleration.y,imu.linear_acceleration.z,imu.linear_acceleration_covariance,mag_field.header.seq,mag_field.header.stamp.secs,mag_field.header.stamp.nsecs,mag_field.header.frame_id,mag_field.magnetic_field.x,mag_field.magnetic_field.y,mag_field.magnetic_field.z,mag_field.magnetic_field_covariance
1677822682.9033537,0,1677822682,897387504,imu1_frame,0,0,0,,0.07322081339152225,-0.8008729711357234,-0.48183344535743655,0.3479622501443293,"(0.0, 0.0, 0.0, 0.0, 0.0, 0.0, 0.0, 0.0, 0.0)",-0.016523,-0.052445,0.108528,"(0.0, 0.0, 0.0, 0.0, 0.0, 0.0, 0.0, 0.0, 0.0)",0.148,0.306,-9.439,"(0.0, 0.0, 0.0, 0.0, 0.0, 0.0, 0.0, 0.0, 0.0)",0,0,0,imu1_frame,0.2512,0.0847,0.3848,"(0.0, 0.0, 0.0, 0.0, 0.0, 0.0, 0.0, 0.0, 0.0)"
1677822682.9864075,0,1677822682,984020709,imu1_frame,0,0,0,,0.11529443278429746,-0.7813742436133497,-0.527092458419493,0.313584160097266,"(0.0, 0.0, 0.0, 0.0, 0.0, 0.0, 0.0, 0.0, 0.0)",-0.051936,-0.064005,0.049874,"(0.0, 0.0, 0.0, 0.0, 0.0, 0.0, 0.0, 0.0, 0.0)",0.023,0.068,-9.797,"(0.0, 0.0, 0.0, 0.0, 0.0, 0.0, 0.0, 0.0, 0.0)",0,0,0,imu1_frame,0.2559,0.0836,0.3838,"(0.0, 0.0, 0.0, 0.0, 0.0, 0.0, 0.0, 0.0, 0.0)"
1677822683.09207,0,1677822683,86993694,imu1_frame,0,0,0,,0.13618728837405247,-0.7675216110142205,-0.5572648760371872,0.28604100588327674,"(0.0, 0.0, 0.0, 0.0, 0.0, 0.0, 0.0, 0.0, 0.0)",0.001814,-0.04386,0.033258,"(0.0, 0.0, 0.0, 0.0, 0.0, 0.0, 0.0, 0.0, 0.0)",-0.129,0.263,-9.953,"(0.0, 0.0, 0.0, 0.0, 0.0, 0.0, 0.0, 0.0, 0.0)",0,0,0,imu1_frame,0.2559,0.0865,0.3893,"(0.0, 0.0, 0.0, 0.0, 0.0, 0.0, 0.0, 0.0, 0.0)"
1677822683.1925864,0,1677822683,187552452,imu1_frame,0,0,0,,0.15784733714908328,-0.7547844789584909,-0.5814977383069773,0.259316387492524,"(0.0, 0.0, 0.0, 0.0, 0.0, 0.0, 0.0, 0.0, 0.0)",-0.053144,-0.049313,0.044409,"(0.0, 0.0, 0.0, 0.0, 0.0, 0.0, 0.0, 0.0, 0.0)",-0.105,0.313,-10.07,"(0.0, 0.0, 0.0, 0.0, 0.0, 0.0, 0.0, 0.0, 0.0)",0,0,0,imu1_frame,0.2568,0.0817,0.3839,"(0.0, 0.0, 0.0, 0.0, 0.0, 0.0, 0.0, 0.0, 0.0)"
1677822683.3034885,0,1677822683,293927192,imu1_frame,0,0,0,,0.19518520532659614,-0.71055082963501,-0.6257978764546914,0.2557289032381988,"(0.0, 0.0, 0.0, 0.0, 0.0, 0.0, 0.0, 0.0, 0.0)",-0.084203,0.022322,0.102456,"(0.0, 0.0, 0.0, 0.0, 0.0, 0.0, 0.0, 0.0, 0.0)",0.094,0.477,-10.682,"(0.0, 0.0, 0.0, 0.0, 0.0, 0.0, 0.0, 0.0, 0.0)",0,0,0,imu1_frame,0.254,0.0856,0.3859,"(0.0, 0.0, 0.0, 0.0, 0.0, 0.0, 0.0, 0.0, 0.0)"
1677822683.3870459,0,1677822683,384338378,imu1_frame,0,0,0,,0.26136087849309697,-0.6553926602085992,-0.6353222898926536,0.3138734459994459,"(0.0, 0.0, 0.0, 0.0, 0.0, 0.0, 0.0, 0.0, 0.0)",-0.077032,0.081652,0.124096,"(0.0, 0.0, 0.0, 0.0, 0.0, 0.0, 0.0, 0.0, 0.0)",0.097,-0.012,-10.366,"(0.0, 0.0, 0.0, 0.0, 0.0, 0.0, 0.0, 0.0, 0.0)",0,0,0,imu1_frame,0.255,0.0808,0.3871,"(0.0, 0.0, 0.0, 0.0, 0.0, 0.0, 0.0, 0.0, 0.0)"
1677822683.4969923,0,1677822683,492058277,imu1_frame,0,0,0,,0.30746295987814015,-0.6172449646486411,-0.6054962685528298,0.39730271920472743,"(0.0, 0.0, 0.0, 0.0, 0.0, 0.0, 0.0, 0.0, 0.0)",0.000294,0.124415,0.103855,"(0.0, 0.0, 0.0, 0.0, 0.0, 0.0, 0.0, 0.0, 0.0)",0.312,0.13,-10.101,"(0.0, 0.0, 0.0, 0.0, 0.0, 0.0, 0.0, 0.0, 0.0)",0,0,0,imu1_frame,0.2521,0.0808,0.3837,"(0.0, 0.0, 0.0, 0.0, 0.0, 0.0, 0.0, 0.0, 0.0)"
1677822683.5934346,0,1677822683,587963342,imu1_frame,0,0,0,,0.37067302585264245,-0.6232541134494846,-0.5134822032645936,0.45879390242687623,"(0.0, 0.0, 0.0, 0.0, 0.0, 0.0, 0.0, 0.0, 0.0)",0.085222,0.107205,0.068048,"(0.0, 0.0, 0.0, 0.0, 0.0, 0.0, 0.0, 0.0, 0.0)",0.718,0.168,-9.412,"(0.0, 0.0, 0.0, 0.0, 0.0, 0.0, 0.0, 0.0, 0.0)",0,0,0,imu1_frame,0.2521,0.0847,0.3837,"(0.0, 0.0, 0.0, 0.0, 0.0, 0.0, 0.0, 0.0, 0.0)"
1677822683.6897004,0,1677822683,687230825,imu1_frame,0,0,0,,0.40133599685461463,-0.601967443608721,-0.4500113965265447,0.5235020128520259,"(0.0, 0.0, 0.0, 0.0, 0.0, 0.0, 0.0, 0.0, 0.0)",-0.09372,0.110604,0.059486,"(0.0, 0.0, 0.0, 0.0, 0.0, 0.0, 0.0, 0.0, 0.0)",1.131,0.525,-9.04,"(0.0, 0.0, 0.0, 0.0, 0.0, 0.0, 0.0, 0.0, 0.0)",0,0,0,imu1_frame,0.2531,0.0789,0.3871,"(0.0, 0.0, 0.0, 0.0, 0.0, 0.0, 0.0, 0.0, 0.0)"
1677822683.7861164,0,1677822683,783736467,imu1_frame,0,0,0,,0.3213087357441271,-0.5196330266182286,-0.47521661767372814,0.633175631455311,"(0.0, 0.0, 0.0, 0.0, 0.0, 0.0, 0.0, 0.0, 0.0)",-0.292767,0.113547,0.069704,"(0.0, 0.0, 0.0, 0.0, 0.0, 0.0, 0.0, 0.0, 0.0)",0.566,1.6,-9.572,"(0.0, 0.0, 0.0, 0.0, 0.0, 0.0, 0.0, 0.0, 0.0)",0,0,0,imu1_frame,0.2503,0.077,0.3892,"(0.0, 0.0, 0.0, 0.0, 0.0, 0.0, 0.0, 0.0, 0.0)"
1677822683.8880465,0,1677822683,884608507,imu1_frame,0,0,0,,0.2917377299665425,-0.36610850658706084,-0.41784676363610146,0.7786255457133402,"(0.0, 0.0, 0.0, 0.0, 0.0, 0.0, 0.0, 0.0, 0.0)",-0.213335,0.196527,0.337385,"(0.0, 0.0, 0.0, 0.0, 0.0, 0.0, 0.0, 0.0, 0.0)",-0.095,0.52,-9.958,"(0.0, 0.0, 0.0, 0.0, 0.0, 0.0, 0.0, 0.0, 0.0)",0,0,0,imu1_frame,0.2484,0.0771,0.3858,"(0.0, 0.0, 0.0, 0.0, 0.0, 0.0, 0.0, 0.0, 0.0)"
1677822683.9862819,0,1677822683,983712911,imu1_frame,0,0,0,,0.32046520798088307,-0.2801225164575898,-0.1860804851408482,0.885554899086998,"(0.0, 0.0, 0.0, 0.0, 0.0, 0.0, 0.0, 0.0, 0.0)",-0.047678,0.270889,0.234849,"(0.0, 0.0, 0.0, 0.0, 0.0, 0.0, 0.0, 0.0, 0.0)",-0.613,-1.018,-8.562,"(0.0, 0.0, 0.0, 0.0, 0.0, 0.0, 0.0, 0.0, 0.0)",0,0,0,imu1_frame,0.2455,0.0762,0.3857,"(0.0, 0.0, 0.0, 0.0, 0.0, 0.0, 0.0, 0.0, 0.0)"
1677822684.0945263,0,1677822684,88375091,imu1_frame,0,0,0,,0.28909946584171,-0.29535527236212955,-0.08301524254146173,0.9068049577741141,"(0.0, 0.0, 0.0, 0.0, 0.0, 0.0, 0.0, 0.0, 0.0)",-0.150302,0.028007,-0.045916,"(0.0, 0.0, 0.0, 0.0, 0.0, 0.0, 0.0, 0.0, 0.0)",-0.032,0.187,-7.231,"(0.0, 0.0, 0.0, 0.0, 0.0, 0.0, 0.0, 0.0, 0.0)",0,0,0,imu1_frame,0.2446,0.0695,0.3902,"(0.0, 0.0, 0.0, 0.0, 0.0, 0.0, 0.0, 0.0, 0.0)"
1677822684.1953442,0,1677822684,189094066,imu1_frame,0,0,0,,0.18730064076159075,-0.21339106824247644,-0.22991213555030693,0.9308722425184509,"(0.0, 0.0, 0.0, 0.0, 0.0, 0.0, 0.0, 0.0, 0.0)",-0.131658,-0.278208,0.028263,"(0.0, 0.0, 0.0, 0.0, 0.0, 0.0, 0.0, 0.0, 0.0)",0.427,2.681,-9.065,"(0.0, 0.0, 0.0, 0.0, 0.0, 0.0, 0.0, 0.0, 0.0)",0,0,0,imu1_frame,0.2465,0.0742,0.3847,"(0.0, 0.0, 0.0, 0.0, 0.0, 0.0, 0.0, 0.0, 0.0)"
1677822684.2962935,0,1677822684,290125846,imu1_frame,0,0,0,,0.2467451229949782,0.07235060767576215,-0.2780885734701646,0.9254993134262554,"(0.0, 0.0, 0.0, 0.0, 0.0, 0.0, 0.0, 0.0, 0.0)",0.015712,-0.314418,0.405055,"(0.0, 0.0, 0.0, 0.0, 0.0, 0.0, 0.0, 0.0, 0.0)",0.651,1.954,-10.499,"(0.0, 0.0, 0.0, 0.0, 0.0, 0.0, 0.0, 0.0, 0.0)",0,0,0,imu1_frame,0.2493,0.0684,0.3849,"(0.0, 0.0, 0.0, 0.0, 0.0, 0.0, 0.0, 0.0, 0.0)"
1677822684.3921003,0,1677822684,389033317,imu1_frame,0,0,0,,0.28424124988189775,0.38819019430125923,-0.2194439832205396,0.8487400209382321,"(0.0, 0.0, 0.0, 0.0, 0.0, 0.0, 0.0, 0.0, 0.0)",0.056503,-0.210345,0.374353,"(0.0, 0.0, 0.0, 0.0, 0.0, 0.0, 0.0, 0.0, 0.0)",1.101,0.083,-10.765,"(0.0, 0.0, 0.0, 0.0, 0.0, 0.0, 0.0, 0.0, 0.0)",0,0,0,imu1_frame,0.2502,0.0655,0.3904,"(0.0, 0.0, 0.0, 0.0, 0.0, 0.0, 0.0, 0.0, 0.0)"
1677822684.497822,0,1677822684,493994235,imu1_frame,0,0,0,,0.253487553034878,0.553352116317256,-0.19261247734828513,0.7697050924824131,"(0.0, 0.0, 0.0, 0.0, 0.0, 0.0, 0.0, 0.0, 0.0)",0.020596,-0.059748,0.146202,"(0.0, 0.0, 0.0, 0.0, 0.0, 0.0, 0.0, 0.0, 0.0)",1.073,-0.106,-11.208,"(0.0, 0.0, 0.0, 0.0, 0.0, 0.0, 0.0, 0.0, 0.0)",0,0,0,imu1_frame,0.2502,0.0674,0.3816,"(0.0, 0.0, 0.0, 0.0, 0.0, 0.0, 0.0, 0.0, 0.0)"
1677822684.593708,0,1677822684,588060379,imu1_frame,0,0,0,,0.21293852852609008,0.5818167005008374,-0.14585941098951918,0.7712791597814975,"(0.0, 0.0, 0.0, 0.0, 0.0, 0.0, 0.0, 0.0, 0.0)",-0.000142,0.100373,0.106104,"(0.0, 0.0, 0.0, 0.0, 0.0, 0.0, 0.0, 0.0, 0.0)",0.822,1.424,-11.177,"(0.0, 0.0, 0.0, 0.0, 0.0, 0.0, 0.0, 0.0, 0.0)",0,0,0,imu1_frame,0.2521,0.0693,0.3849,"(0.0, 0.0, 0.0, 0.0, 0.0, 0.0, 0.0, 0.0, 0.0)"
1677822684.6913126,0,1677822684,686610460,imu1_frame,0,0,0,,0.11755652964316705,0.5863251586125872,0.006710279641747863,0.8014725465437411,"(0.0, 0.0, 0.0, 0.0, 0.0, 0.0, 0.0, 0.0, 0.0)",-0.013765,0.203764,0.225627,"(0.0, 0.0, 0.0, 0.0, 0.0, 0.0, 0.0, 0.0, 0.0)",0.613,1.015,-9.837,"(0.0, 0.0, 0.0, 0.0, 0.0, 0.0, 0.0, 0.0, 0.0)",0,0,0,imu1_frame,0.2474,0.0665,0.3903,"(0.0, 0.0, 0.0, 0.0, 0.0, 0.0, 0.0, 0.0, 0.0)"
1677822684.7860456,0,1677822684,783616542,imu1_frame,0,0,0,,0.006449806936135616,0.5576117090489499,0.1996790440455228,0.8057020921476261,"(0.0, 0.0, 0.0, 0.0, 0.0, 0.0, 0.0, 0.0, 0.0)",-0.049598,0.180504,0.12265,"(0.0, 0.0, 0.0, 0.0, 0.0, 0.0, 0.0, 0.0, 0.0)",0.552,0.346,-8.428,"(0.0, 0.0, 0.0, 0.0, 0.0, 0.0, 0.0, 0.0, 0.0)",0,0,0,imu1_frame,0.2484,0.0713,0.3848,"(0.0, 0.0, 0.0, 0.0, 0.0, 0.0, 0.0, 0.0, 0.0)"
1677822684.8866918,0,1677822684,884216547,imu1_frame,0,0,0,,-0.07810009351231129,0.503518433271294,0.32141685125746644,0.7981608675430822,"(0.0, 0.0, 0.0, 0.0, 0.0, 0.0, 0.0, 0.0, 0.0)",-0.093588,0.092811,0.022963,"(0.0, 0.0, 0.0, 0.0, 0.0, 0.0, 0.0, 0.0, 0.0)",0.538,1.055,-8.903,"(0.0, 0.0, 0.0, 0.0, 0.0, 0.0, 0.0, 0.0, 0.0)",0,0,0,imu1_frame,0.2474,0.0665,0.3892,"(0.0, 0.0, 0.0, 0.0, 0.0, 0.0, 0.0, 0.0, 0.0)"
1677822684.9887302,0,1677822684,986306667,imu1_frame,0,0,0,,-0.11525273126807996,0.46892699725679576,0.38756826145516465,0.78524844596573,"(0.0, 0.0, 0.0, 0.0, 0.0, 0.0, 0.0, 0.0, 0.0)",0.007962,0.04373,0.024881,"(0.0, 0.0, 0.0, 0.0, 0.0, 0.0, 0.0, 0.0, 0.0)",0.621,0.866,-8.771,"(0.0, 0.0, 0.0, 0.0, 0.0, 0.0, 0.0, 0.0, 0.0)",0,0,0,imu1_frame,0.2465,0.0646,0.3892,"(0.0, 0.0, 0.0, 0.0, 0.0, 0.0, 0.0, 0.0, 0.0)"
1677822685.086735,0,1677822685,84054470,imu1_frame,0,0,0,,-0.07966750295978209,0.4645964092521375,0.35499962798337603,0.8073280185982884,"(0.0, 0.0, 0.0, 0.0, 0.0, 0.0, 0.0, 0.0, 0.0)",-0.011788,-0.063482,-0.121441,"(0.0, 0.0, 0.0, 0.0, 0.0, 0.0, 0.0, 0.0, 0.0)",1.332,0.918,-8.66,"(0.0, 0.0, 0.0, 0.0, 0.0, 0.0, 0.0, 0.0, 0.0)",0,0,0,imu1_frame,0.2436,0.0628,0.3836,"(0.0, 0.0, 0.0, 0.0, 0.0, 0.0, 0.0, 0.0, 0.0)"
1677822685.1860945,0,1677822685,183790922,imu1_frame,0,0,0,,-0.03374652537385914,0.4461013959126043,0.24635631623386922,0.8597460567177352,"(0.0, 0.0, 0.0, 0.0, 0.0, 0.0, 0.0, 0.0, 0.0)",-0.046252,-0.081472,-0.203945,"(0.0, 0.0, 0.0, 0.0, 0.0, 0.0, 0.0, 0.0, 0.0)",2.113,1.932,-10.142,"(0.0, 0.0, 0.0, 0.0, 0.0, 0.0, 0.0, 0.0, 0.0)",0,0,0,imu1_frame,0.2483,0.0684,0.3848,"(0.0, 0.0, 0.0, 0.0, 0.0, 0.0, 0.0, 0.0, 0.0)"
1677822685.2908432,0,1677822685,287085771,imu1_frame,0,0,0,,-0.009471580680379593,0.3967672406266722,0.17899395723239936,0.9002484152716944,"(0.0, 0.0, 0.0, 0.0, 0.0, 0.0, 0.0, 0.0, 0.0)",-0.094476,0.006041,-0.131171,"(0.0, 0.0, 0.0, 0.0, 0.0, 0.0, 0.0, 0.0, 0.0)",2.242,2.135,-9.98,"(0.0, 0.0, 0.0, 0.0, 0.0, 0.0, 0.0, 0.0, 0.0)",0,0,0,imu1_frame,0.2455,0.0646,0.387,"(0.0, 0.0, 0.0, 0.0, 0.0, 0.0, 0.0, 0.0, 0.0)"
1677822685.3916175,0,1677822685,386858701,imu1_frame,0,0,0,,-0.044980623442160805,0.31938378419331964,0.1544377283695059,0.9338735085466213,"(0.0, 0.0, 0.0, 0.0, 0.0, 0.0, 0.0, 0.0, 0.0)",-0.086945,0.070582,-0.151988,"(0.0, 0.0, 0.0, 0.0, 0.0, 0.0, 0.0, 0.0, 0.0)",2.009,1.135,-10.653,"(0.0, 0.0, 0.0, 0.0, 0.0, 0.0, 0.0, 0.0, 0.0)",0,0,0,imu1_frame,0.2465,0.0665,0.3859,"(0.0, 0.0, 0.0, 0.0, 0.0, 0.0, 0.0, 0.0, 0.0)"
1677822685.4987824,0,1677822685,491353273,imu1_frame,0,0,0,,-0.028197559513846837,0.18311925638273824,0.12586427326622238,0.974592438044982,"(0.0, 0.0, 0.0, 0.0, 0.0, 0.0, 0.0, 0.0, 0.0)",0.060808,0.203227,-0.148687,"(0.0, 0.0, 0.0, 0.0, 0.0, 0.0, 0.0, 0.0, 0.0)",1.882,0.81,-10.524,"(0.0, 0.0, 0.0, 0.0, 0.0, 0.0, 0.0, 0.0, 0.0)",0,0,0,imu1_frame,0.2483,0.0655,0.3859,"(0.0, 0.0, 0.0, 0.0, 0.0, 0.0, 0.0, 0.0, 0.0)"
1677822685.8862188,0,1677822685,883667945,imu1_frame,0,0,0,,0.16610001246678288,-0.2414449206833932,0.9443321316312233,0.14950572331370554,"(0.0, 0.0, 0.0, 0.0, 0.0, 0.0, 0.0, 0.0, 0.0)",0.027274,-0.006754,-1.8e-05,"(0.0, 0.0, 0.0, 0.0, 0.0, 0.0, 0.0, 0.0, 0.0)",1.017,0.332,-9.787,"(0.0, 0.0, 0.0, 0.0, 0.0, 0.0, 0.0, 0.0, 0.0)",0,0,0,imu1_frame,0.2362,0.0976,0.3962,"(0.0, 0.0, 0.0, 0.0, 0.0, 0.0, 0.0, 0.0, 0.0)"
1677822685.9861617,0,1677822685,983711957,imu1_frame,0,0,0,,0.16825511355624803,-0.2420123571512591,0.942553394025131,0.15720475552594282,"(0.0, 0.0, 0.0, 0.0, 0.0, 0.0, 0.0, 0.0, 0.0)",0.016361,-0.000184,0.000293,"(0.0, 0.0, 0.0, 0.0, 0.0, 0.0, 0.0, 0.0, 0.0)",1.021,0.444,-10.017,"(0.0, 0.0, 0.0, 0.0, 0.0, 0.0, 0.0, 0.0, 0.0)",0,0,0,imu1_frame,0.2352,0.0938,0.3874,"(0.0, 0.0, 0.0, 0.0, 0.0, 0.0, 0.0, 0.0, 0.0)"
1677822686.086141,0,1677822686,83686828,imu1_frame,0,0,0,,0.17844698427916086,-0.20530258441070653,0.9525565239245898,0.13654153714038875,"(0.0, 0.0, 0.0, 0.0, 0.0, 0.0, 0.0, 0.0, 0.0)",0.06021,0.000674,0.023833,"(0.0, 0.0, 0.0, 0.0, 0.0, 0.0, 0.0, 0.0, 0.0)",1.008,0.244,-9.617,"(0.0, 0.0, 0.0, 0.0, 0.0, 0.0, 0.0, 0.0, 0.0)",0,0,0,imu1_frame,0.2362,0.0967,0.3929,"(0.0, 0.0, 0.0, 0.0, 0.0, 0.0, 0.0, 0.0, 0.0)"
1677822686.1859357,0,1677822686,183470964,imu1_frame,0,0,0,,0.18290853305680696,-0.18690971053123048,0.9558793219854529,0.13380564429339162,"(0.0, 0.0, 0.0, 0.0, 0.0, 0.0, 0.0, 0.0, 0.0)",0.01785,-0.004008,0.001733,"(0.0, 0.0, 0.0, 0.0, 0.0, 0.0, 0.0, 0.0, 0.0)",1.05,0.508,-9.653,"(0.0, 0.0, 0.0, 0.0, 0.0, 0.0, 0.0, 0.0, 0.0)",0,0,0,imu1_frame,0.2362,0.0947,0.3951,"(0.0, 0.0, 0.0, 0.0, 0.0, 0.0, 0.0, 0.0, 0.0)"
1677822686.286059,0,1677822686,283558368,imu1_frame,0,0,0,,0.19954129528412792,-0.16793613886893288,0.9579492173417737,0.11964122087478901,"(0.0, 0.0, 0.0, 0.0, 0.0, 0.0, 0.0, 0.0, 0.0)",0.057932,-0.002455,0.046426,"(0.0, 0.0, 0.0, 0.0, 0.0, 0.0, 0.0, 0.0, 0.0)",1.054,0.64,-9.711,"(0.0, 0.0, 0.0, 0.0, 0.0, 0.0, 0.0, 0.0, 0.0)",0,0,0,imu1_frame,0.2371,0.0976,0.3951,"(0.0, 0.0, 0.0, 0.0, 0.0, 0.0, 0.0, 0.0, 0.0)"
1677822686.3863075,0,1677822686,383765935,imu1_frame,0,0,0,,0.24086866140502608,-0.012460987118473668,0.9691922147190551,0.0499345840170631,"(0.0, 0.0, 0.0, 0.0, 0.0, 0.0, 0.0, 0.0, 0.0)",0.3647,0.017197,-0.003901,"(0.0, 0.0, 0.0, 0.0, 0.0, 0.0, 0.0, 0.0, 0.0)",1.037,0.464,-9.162,"(0.0, 0.0, 0.0, 0.0, 0.0, 0.0, 0.0, 0.0, 0.0)",0,0,0,imu1_frame,0.2362,0.0957,0.3929,"(0.0, 0.0, 0.0, 0.0, 0.0, 0.0, 0.0, 0.0, 0.0)"
1677822686.4910805,0,1677822686,486691951,imu1_frame,0,0,0,,0.27691062052103516,0.2335938860904289,0.9291517263051516,-0.07369853545345276,"(0.0, 0.0, 0.0, 0.0, 0.0, 0.0, 0.0, 0.0, 0.0)",0.36108,0.026941,0.107752,"(0.0, 0.0, 0.0, 0.0, 0.0, 0.0, 0.0, 0.0, 0.0)",0.996,0.281,-10.118,"(0.0, 0.0, 0.0, 0.0, 0.0, 0.0, 0.0, 0.0, 0.0)",0,0,0,imu1_frame,0.2371,0.1005,0.394,"(0.0, 0.0, 0.0, 0.0, 0.0, 0.0, 0.0, 0.0, 0.0)"
1677822686.592324,0,1677822686,587189912,imu1_frame,0,0,0,,0.23940682568519991,0.5156162512654711,0.7920882651434915,-0.22230707021652074,"(0.0, 0.0, 0.0, 0.0, 0.0, 0.0, 0.0, 0.0, 0.0)",0.425751,-0.000129,0.085435,"(0.0, 0.0, 0.0, 0.0, 0.0, 0.0, 0.0, 0.0, 0.0)",1.04,-0.08,-9.912,"(0.0, 0.0, 0.0, 0.0, 0.0, 0.0, 0.0, 0.0, 0.0)",0,0,0,imu1_frame,0.2371,0.1043,0.3939,"(0.0, 0.0, 0.0, 0.0, 0.0, 0.0, 0.0, 0.0, 0.0)"
1677822686.6950345,0,1677822686,689180850,imu1_frame,0,0,0,,0.1714045678719979,0.7002018967598512,0.6092761545503587,-0.33033368793213913,"(0.0, 0.0, 0.0, 0.0, 0.0, 0.0, 0.0, 0.0, 0.0)",0.244031,-0.042693,0.064956,"(0.0, 0.0, 0.0, 0.0, 0.0, 0.0, 0.0, 0.0, 0.0)",1.054,-0.432,-9.481,"(0.0, 0.0, 0.0, 0.0, 0.0, 0.0, 0.0, 0.0, 0.0)",0,0,0,imu1_frame,0.2353,0.1063,0.3917,"(0.0, 0.0, 0.0, 0.0, 0.0, 0.0, 0.0, 0.0, 0.0)"
1677822686.78627,0,1677822686,783986330,imu1_frame,0,0,0,,0.18842664920999863,0.7338432294242995,0.551410193824694,-0.3491651624114588,"(0.0, 0.0, 0.0, 0.0, 0.0, 0.0, 0.0, 0.0, 0.0)",0.053331,-0.067475,0.003707,"(0.0, 0.0, 0.0, 0.0, 0.0, 0.0, 0.0, 0.0, 0.0)",1.036,0.196,-9.883,"(0.0, 0.0, 0.0, 0.0, 0.0, 0.0, 0.0, 0.0, 0.0)",0,0,0,imu1_frame,0.2362,0.1063,0.3961,"(0.0, 0.0, 0.0, 0.0, 0.0, 0.0, 0.0, 0.0, 0.0)"
1677822686.890445,0,1677822686,888105630,imu1_frame,0,0,0,,0.21343649218887567,0.7258541324294716,0.5347037320733545,-0.37639415662838493,"(0.0, 0.0, 0.0, 0.0, 0.0, 0.0, 0.0, 0.0, 0.0)",-0.007578,-0.020259,0.071843,"(0.0, 0.0, 0.0, 0.0, 0.0, 0.0, 0.0, 0.0, 0.0)",1.048,0.039,-10.009,"(0.0, 0.0, 0.0, 0.0, 0.0, 0.0, 0.0, 0.0, 0.0)",0,0,0,imu1_frame,0.2362,0.1063,0.3928,"(0.0, 0.0, 0.0, 0.0, 0.0, 0.0, 0.0, 0.0, 0.0)"
1677822686.9894521,0,1677822686,985594034,imu1_frame,0,0,0,,0.23843672863151946,0.7111634514399742,0.5247848371023819,-0.40248645508005504,"(0.0, 0.0, 0.0, 0.0, 0.0, 0.0, 0.0, 0.0, 0.0)",-0.030797,-0.016744,0.045113,"(0.0, 0.0, 0.0, 0.0, 0.0, 0.0, 0.0, 0.0, 0.0)",0.875,-0.187,-9.421,"(0.0, 0.0, 0.0, 0.0, 0.0, 0.0, 0.0, 0.0, 0.0)",0,0,0,imu1_frame,0.2362,0.1024,0.395,"(0.0, 0.0, 0.0, 0.0, 0.0, 0.0, 0.0, 0.0, 0.0)"
1677822687.0985675,0,1677822687,91435432,imu1_frame,0,0,0,,0.2856363935800808,0.6831589962957816,0.5077082032227087,-0.44038394251275104,"(0.0, 0.0, 0.0, 0.0, 0.0, 0.0, 0.0, 0.0, 0.0)",-0.005824,-0.118825,0.030521,"(0.0, 0.0, 0.0, 0.0, 0.0, 0.0, 0.0, 0.0, 0.0)",0.743,-0.567,-9.185,"(0.0, 0.0, 0.0, 0.0, 0.0, 0.0, 0.0, 0.0, 0.0)",0,0,0,imu1_frame,0.2362,0.1121,0.3949,"(0.0, 0.0, 0.0, 0.0, 0.0, 0.0, 0.0, 0.0, 0.0)"
1677822687.1901636,0,1677822687,186053514,imu1_frame,0,0,0,,0.37797243312662926,0.6263113556661875,0.525327339640737,-0.4346287056625504,"(0.0, 0.0, 0.0, 0.0, 0.0, 0.0, 0.0, 0.0, 0.0)",0.003219,-0.109559,-0.05942,"(0.0, 0.0, 0.0, 0.0, 0.0, 0.0, 0.0, 0.0, 0.0)",0.721,-0.277,-9.534,"(0.0, 0.0, 0.0, 0.0, 0.0, 0.0, 0.0, 0.0, 0.0)",0,0,0,imu1_frame,0.2381,0.1072,0.3918,"(0.0, 0.0, 0.0, 0.0, 0.0, 0.0, 0.0, 0.0, 0.0)"
1677822687.29031,0,1677822687,287929058,imu1_frame,0,0,0,,0.5600467902080835,0.42876804097730103,0.6148628834933823,-0.35277357372160717,"(0.0, 0.0, 0.0, 0.0, 0.0, 0.0, 0.0, 0.0, 0.0)",-0.263977,-0.413353,-0.08316,"(0.0, 0.0, 0.0, 0.0, 0.0, 0.0, 0.0, 0.0, 0.0)",0.222,-0.557,-8.141,"(0.0, 0.0, 0.0, 0.0, 0.0, 0.0, 0.0, 0.0, 0.0)",0,0,0,imu1_frame,0.24,0.1062,0.394,"(0.0, 0.0, 0.0, 0.0, 0.0, 0.0, 0.0, 0.0, 0.0)"
1677822687.3965507,0,1677822687,390134572,imu1_frame,0,0,0,,0.7359782147285782,-0.333894305194565,0.5883552674415868,0.026243850276065017,"(0.0, 0.0, 0.0, 0.0, 0.0, 0.0, 0.0, 0.0, 0.0)",-0.555104,-0.934596,-0.507514,"(0.0, 0.0, 0.0, 0.0, 0.0, 0.0, 0.0, 0.0, 0.0)",-0.019,-1.617,-8.544,"(0.0, 0.0, 0.0, 0.0, 0.0, 0.0, 0.0, 0.0, 0.0)",0,0,0,imu1_frame,0.2475,0.1098,0.3888,"(0.0, 0.0, 0.0, 0.0, 0.0, 0.0, 0.0, 0.0, 0.0)"
1677822687.5013363,0,1677822687,493726015,imu1_frame,0,0,0,,0.07471255683360295,-0.941356548379046,-0.029287781174538438,0.3277317631068842,"(0.0, 0.0, 0.0, 0.0, 0.0, 0.0, 0.0, 0.0, 0.0)",-0.630884,-0.819993,-0.735382,"(0.0, 0.0, 0.0, 0.0, 0.0, 0.0, 0.0, 0.0, 0.0)",0.498,0.974,-10.133,"(0.0, 0.0, 0.0, 0.0, 0.0, 0.0, 0.0, 0.0, 0.0)",0,0,0,imu1_frame,0.255,0.1,0.3815,"(0.0, 0.0, 0.0, 0.0, 0.0, 0.0, 0.0, 0.0, 0.0)"
1677822687.5910904,0,1677822687,586517095,imu1_frame,0,0,0,,-0.449801465671001,-0.7890021976182756,-0.41789754636551224,0.02271154718277585,"(0.0, 0.0, 0.0, 0.0, 0.0, 0.0, 0.0, 0.0, 0.0)",-0.271016,-0.447654,-0.286516,"(0.0, 0.0, 0.0, 0.0, 0.0, 0.0, 0.0, 0.0, 0.0)",0.451,2.345,-10.324,"(0.0, 0.0, 0.0, 0.0, 0.0, 0.0, 0.0, 0.0, 0.0)",0,0,0,imu1_frame,0.2616,0.0969,0.3828,"(0.0, 0.0, 0.0, 0.0, 0.0, 0.0, 0.0, 0.0, 0.0)"
1677822687.6954167,0,1677822687,692336559,imu1_frame,0,0,0,,-0.5225794137188609,-0.7058108877100173,-0.41070967297205135,-0.24507001382143742,"(0.0, 0.0, 0.0, 0.0, 0.0, 0.0, 0.0, 0.0, 0.0)",-0.024559,-0.325539,0.015684,"(0.0, 0.0, 0.0, 0.0, 0.0, 0.0, 0.0, 0.0, 0.0)",0.848,1.22,-9.739,"(0.0, 0.0, 0.0, 0.0, 0.0, 0.0, 0.0, 0.0, 0.0)",0,0,0,imu1_frame,0.2635,0.0959,0.3829,"(0.0, 0.0, 0.0, 0.0, 0.0, 0.0, 0.0, 0.0, 0.0)"
1677822687.786512,0,1677822687,784025430,imu1_frame,0,0,0,,-0.4322764542693603,-0.7480557079459964,-0.2698040515114061,-0.4251535001405429,"(0.0, 0.0, 0.0, 0.0, 0.0, 0.0, 0.0, 0.0, 0.0)",0.048876,-0.287164,0.20696,"(0.0, 0.0, 0.0, 0.0, 0.0, 0.0, 0.0, 0.0, 0.0)",0.239,-0.207,-9.73,"(0.0, 0.0, 0.0, 0.0, 0.0, 0.0, 0.0, 0.0, 0.0)",0,0,0,imu1_frame,0.2682,0.1026,0.3808,"(0.0, 0.0, 0.0, 0.0, 0.0, 0.0, 0.0, 0.0, 0.0)"
1677822687.8872972,0,1677822687,884896755,imu1_frame,0,0,0,,-0.37643144876828083,-0.7501546406312911,-0.08086601363554943,-0.537613306528258,"(0.0, 0.0, 0.0, 0.0, 0.0, 0.0, 0.0, 0.0, 0.0)",0.053822,-0.272309,0.083418,"(0.0, 0.0, 0.0, 0.0, 0.0, 0.0, 0.0, 0.0, 0.0)",-0.022,-0.478,-9.697,"(0.0, 0.0, 0.0, 0.0, 0.0, 0.0, 0.0, 0.0, 0.0)",0,0,0,imu1_frame,0.27,0.0977,0.3798,"(0.0, 0.0, 0.0, 0.0, 0.0, 0.0, 0.0, 0.0, 0.0)"
1677822687.992571,0,1677822687,987438678,imu1_frame,0,0,0,,-0.370652452311827,-0.704056959701225,0.12296531647661502,-0.5931273792662942,"(0.0, 0.0, 0.0, 0.0, 0.0, 0.0, 0.0, 0.0, 0.0)",0.107464,-0.251374,0.075799,"(0.0, 0.0, 0.0, 0.0, 0.0, 0.0, 0.0, 0.0, 0.0)",0.049,0.462,-10.095,"(0.0, 0.0, 0.0, 0.0, 0.0, 0.0, 0.0, 0.0, 0.0)",0,0,0,imu1_frame,0.2719,0.0976,0.3777,"(0.0, 0.0, 0.0, 0.0, 0.0, 0.0, 0.0, 0.0, 0.0)"
1677822688.0968735,0,1677822688,90116977,imu1_frame,0,0,0,,-0.2803801972524981,-0.6474973713438668,0.2841274719998459,-0.6491576686340614,"(0.0, 0.0, 0.0, 0.0, 0.0, 0.0, 0.0, 0.0, 0.0)",-0.014705,-0.258405,0.162105,"(0.0, 0.0, 0.0, 0.0, 0.0, 0.0, 0.0, 0.0, 0.0)",-0.225,0.108,-10.003,"(0.0, 0.0, 0.0, 0.0, 0.0, 0.0, 0.0, 0.0, 0.0)",0,0,0,imu1_frame,0.2719,0.0976,0.3733,"(0.0, 0.0, 0.0, 0.0, 0.0, 0.0, 0.0, 0.0, 0.0)"
1677822688.1920621,0,1677822688,187179327,imu1_frame,0,0,0,,-0.12515946374468223,-0.6076764669235974,0.3587933556947629,-0.6973748978072618,"(0.0, 0.0, 0.0, 0.0, 0.0, 0.0, 0.0, 0.0, 0.0)",-0.070425,-0.172298,0.143026,"(0.0, 0.0, 0.0, 0.0, 0.0, 0.0, 0.0, 0.0, 0.0)",-0.128,-0.521,-9.967,"(0.0, 0.0, 0.0, 0.0, 0.0, 0.0, 0.0, 0.0, 0.0)",0,0,0,imu1_frame,0.2747,0.0985,0.3788,"(0.0, 0.0, 0.0, 0.0, 0.0, 0.0, 0.0, 0.0, 0.0)"
1677822688.2975073,0,1677822688,290434122,imu1_frame,0,0,0,,-0.048616613767691386,-0.5666207972729518,0.4325128827783855,-0.6996498432746612,"(0.0, 0.0, 0.0, 0.0, 0.0, 0.0, 0.0, 0.0, 0.0)",0.02472,-0.123541,0.03871,"(0.0, 0.0, 0.0, 0.0, 0.0, 0.0, 0.0, 0.0, 0.0)",-0.164,-0.14,-10.171,"(0.0, 0.0, 0.0, 0.0, 0.0, 0.0, 0.0, 0.0, 0.0)",0,0,0,imu1_frame,0.2747,0.0985,0.3745,"(0.0, 0.0, 0.0, 0.0, 0.0, 0.0, 0.0, 0.0, 0.0)"
1677822688.3954444,0,1677822688,389342308,imu1_frame,0,0,0,,-0.016595970312521358,-0.5177717607234117,0.5131851692872514,-0.6843083804765066,"(0.0, 0.0, 0.0, 0.0, 0.0, 0.0, 0.0, 0.0, 0.0)",0.041169,-0.074019,0.036959,"(0.0, 0.0, 0.0, 0.0, 0.0, 0.0, 0.0, 0.0, 0.0)",-0.125,0.363,-10.512,"(0.0, 0.0, 0.0, 0.0, 0.0, 0.0, 0.0, 0.0, 0.0)",0,0,0,imu1_frame,0.2776,0.0994,0.3745,"(0.0, 0.0, 0.0, 0.0, 0.0, 0.0, 0.0, 0.0, 0.0)"
1677822688.486687,0,1677822688,484308958,imu1_frame,0,0,0,,0.019911054173471526,-0.48994879400038227,0.5483769721177515,-0.6773746567670205,"(0.0, 0.0, 0.0, 0.0, 0.0, 0.0, 0.0, 0.0, 0.0)",-0.006011,-0.046148,0.024468,"(0.0, 0.0, 0.0, 0.0, 0.0, 0.0, 0.0, 0.0, 0.0)",-0.091,0.164,-10.741,"(0.0, 0.0, 0.0, 0.0, 0.0, 0.0, 0.0, 0.0, 0.0)",0,0,0,imu1_frame,0.2775,0.0975,0.3724,"(0.0, 0.0, 0.0, 0.0, 0.0, 0.0, 0.0, 0.0, 0.0)"
1677822688.5859735,0,1677822688,583693981,imu1_frame,0,0,0,,0.04076396221102255,-0.471664842043814,0.5554522614226913,-0.6836251615066992,"(0.0, 0.0, 0.0, 0.0, 0.0, 0.0, 0.0, 0.0, 0.0)",0.019174,0.001108,0.041407,"(0.0, 0.0, 0.0, 0.0, 0.0, 0.0, 0.0, 0.0, 0.0)",-0.129,0.176,-10.983,"(0.0, 0.0, 0.0, 0.0, 0.0, 0.0, 0.0, 0.0, 0.0)",0,0,0,imu1_frame,0.2776,0.0985,0.3746,"(0.0, 0.0, 0.0, 0.0, 0.0, 0.0, 0.0, 0.0, 0.0)"
1677822688.689895,0,1677822688,687572717,imu1_frame,0,0,0,,0.07133471479093972,-0.4792277984293871,0.5024108524642414,-0.7161252760546665,"(0.0, 0.0, 0.0, 0.0, 0.0, 0.0, 0.0, 0.0, 0.0)",-0.054831,0.093701,0.067178,"(0.0, 0.0, 0.0, 0.0, 0.0, 0.0, 0.0, 0.0, 0.0)",-0.088,0.089,-11.571,"(0.0, 0.0, 0.0, 0.0, 0.0, 0.0, 0.0, 0.0, 0.0)",0,0,0,imu1_frame,0.2766,0.0966,0.3756,"(0.0, 0.0, 0.0, 0.0, 0.0, 0.0, 0.0, 0.0, 0.0)"
1677822688.786159,0,1677822688,783825635,imu1_frame,0,0,0,,0.15650229984247904,-0.5158753588750264,0.36014654927719914,-0.7613633214788479,"(0.0, 0.0, 0.0, 0.0, 0.0, 0.0, 0.0, 0.0, 0.0)",-0.151393,0.155816,0.111641,"(0.0, 0.0, 0.0, 0.0, 0.0, 0.0, 0.0, 0.0, 0.0)",0.04,-0.377,-12.37,"(0.0, 0.0, 0.0, 0.0, 0.0, 0.0, 0.0, 0.0, 0.0)",0,0,0,imu1_frame,0.2747,0.0908,0.3767,"(0.0, 0.0, 0.0, 0.0, 0.0, 0.0, 0.0, 0.0, 0.0)"
1677822688.9000413,0,1677822688,893123388,imu1_frame,0,0,0,,0.31695616068478605,-0.58790142093749,0.06279737045170314,-0.7415977357894183,"(0.0, 0.0, 0.0, 0.0, 0.0, 0.0, 0.0, 0.0, 0.0)",-0.408878,0.334005,0.012092,"(0.0, 0.0, 0.0, 0.0, 0.0, 0.0, 0.0, 0.0, 0.0)",-0.009,-0.763,-13.363,"(0.0, 0.0, 0.0, 0.0, 0.0, 0.0, 0.0, 0.0, 0.0)",0,0,0,imu1_frame,0.2728,0.0918,0.3766,"(0.0, 0.0, 0.0, 0.0, 0.0, 0.0, 0.0, 0.0, 0.0)"
1677822688.9863358,0,1677822688,984031915,imu1_frame,0,0,0,,0.458037161777132,-0.5401179790845516,-0.45398249414510033,-0.5407165820562222,"(0.0, 0.0, 0.0, 0.0, 0.0, 0.0, 0.0, 0.0, 0.0)",-0.541458,0.49624,-0.104918,"(0.0, 0.0, 0.0, 0.0, 0.0, 0.0, 0.0, 0.0, 0.0)",-0.091,0.473,-13.822,"(0.0, 0.0, 0.0, 0.0, 0.0, 0.0, 0.0, 0.0, 0.0)",0,0,0,imu1_frame,0.271,0.0957,0.3755,"(0.0, 0.0, 0.0, 0.0, 0.0, 0.0, 0.0, 0.0, 0.0)"
1677822689.0896864,0,1677822689,87224721,imu1_frame,0,0,0,,0.31902958031951795,-0.35365588715561513,-0.8436435488515857,-0.24781687360312915,"(0.0, 0.0, 0.0, 0.0, 0.0, 0.0, 0.0, 0.0, 0.0)",-0.041519,0.721666,0.010751,"(0.0, 0.0, 0.0, 0.0, 0.0, 0.0, 0.0, 0.0, 0.0)",-0.117,1.58,-14.683,"(0.0, 0.0, 0.0, 0.0, 0.0, 0.0, 0.0, 0.0, 0.0)",0,0,0,imu1_frame,0.2653,0.0843,0.3776,"(0.0, 0.0, 0.0, 0.0, 0.0, 0.0, 0.0, 0.0, 0.0)"
1677822689.1946392,0,1677822689,189981937,imu1_frame,0,0,0,,0.035997929136646366,-0.380949886628979,-0.8930252594466248,0.23682740332472005,"(0.0, 0.0, 0.0, 0.0, 0.0, 0.0, 0.0, 0.0, 0.0)",0.049336,0.814961,0.070875,"(0.0, 0.0, 0.0, 0.0, 0.0, 0.0, 0.0, 0.0, 0.0)",-0.044,0.962,-12.97,"(0.0, 0.0, 0.0, 0.0, 0.0, 0.0, 0.0, 0.0, 0.0)",0,0,0,imu1_frame,0.2597,0.0835,0.3829,"(0.0, 0.0, 0.0, 0.0, 0.0, 0.0, 0.0, 0.0, 0.0)"
1677822689.29356,0,1677822689,288075923,imu1_frame,0,0,0,,-0.17474181081307422,-0.5109281672540205,-0.5884820855693215,0.6017528914963327,"(0.0, 0.0, 0.0, 0.0, 0.0, 0.0, 0.0, 0.0, 0.0)",-0.128072,0.766506,0.074898,"(0.0, 0.0, 0.0, 0.0, 0.0, 0.0, 0.0, 0.0, 0.0)",0.009,0.829,-13.181,"(0.0, 0.0, 0.0, 0.0, 0.0, 0.0, 0.0, 0.0, 0.0)",0,0,0,imu1_frame,0.2484,0.0838,0.3869,"(0.0, 0.0, 0.0, 0.0, 0.0, 0.0, 0.0, 0.0, 0.0)"
1677822689.3890219,0,1677822689,385036945,imu1_frame,0,0,0,,-0.3132562707280472,-0.7230258055076759,-0.16256107226696576,0.5938670652620394,"(0.0, 0.0, 0.0, 0.0, 0.0, 0.0, 0.0, 0.0, 0.0)",-0.233064,0.842384,0.054393,"(0.0, 0.0, 0.0, 0.0, 0.0, 0.0, 0.0, 0.0, 0.0)",0.165,0.81,-13.455,"(0.0, 0.0, 0.0, 0.0, 0.0, 0.0, 0.0, 0.0, 0.0)",0,0,0,imu1_frame,0.2456,0.082,0.3912,"(0.0, 0.0, 0.0, 0.0, 0.0, 0.0, 0.0, 0.0, 0.0)"
1677822689.4901602,0,1677822689,486021995,imu1_frame,0,0,0,,-0.13854483212481095,-0.9635675287042433,0.16522445114440254,0.15825241818795702,"(0.0, 0.0, 0.0, 0.0, 0.0, 0.0, 0.0, 0.0, 0.0)",-0.096421,1.019691,0.114217,"(0.0, 0.0, 0.0, 0.0, 0.0, 0.0, 0.0, 0.0, 0.0)",0.269,1.186,-13.853,"(0.0, 0.0, 0.0, 0.0, 0.0, 0.0, 0.0, 0.0, 0.0)",0,0,0,imu1_frame,0.2362,0.0803,0.3931,"(0.0, 0.0, 0.0, 0.0, 0.0, 0.0, 0.0, 0.0, 0.0)"
1677822689.5893908,0,1677822689,586493492,imu1_frame,0,0,0,,0.2704466840054715,-0.8410534064821086,-0.032866521840494656,-0.46734093582457964,"(0.0, 0.0, 0.0, 0.0, 0.0, 0.0, 0.0, 0.0, 0.0)",-0.178481,1.20259,0.199408,"(0.0, 0.0, 0.0, 0.0, 0.0, 0.0, 0.0, 0.0, 0.0)",0.352,0.998,-13.024,"(0.0, 0.0, 0.0, 0.0, 0.0, 0.0, 0.0, 0.0, 0.0)",0,0,0,imu1_frame,0.2239,0.0768,0.3938,"(0.0, 0.0, 0.0, 0.0, 0.0, 0.0, 0.0, 0.0, 0.0)"
1677822689.9859035,0,1677822689,983516216,imu1_frame,0,0,0,,0.4909705735908804,0.7177169034964794,0.49044528230378803,-0.05739135273910734,"(0.0, 0.0, 0.0, 0.0, 0.0, 0.0, 0.0, 0.0, 0.0)",-0.06298,0.915814,-0.022637,"(0.0, 0.0, 0.0, 0.0, 0.0, 0.0, 0.0, 0.0, 0.0)",1.074,0.852,-14.505,"(0.0, 0.0, 0.0, 0.0, 0.0, 0.0, 0.0, 0.0, 0.0)",0,0,0,imu1_frame,0.2154,0.0674,0.3947,"(0.0, 0.0, 0.0, 0.0, 0.0, 0.0, 0.0, 0.0, 0.0)"
1677822690.0862622,0,1677822690,83767414,imu1_frame,0,0,0,,0.017160481946963374,0.8955005182694821,0.348157888381334,0.2767136144035697,"(0.0, 0.0, 0.0, 0.0, 0.0, 0.0, 0.0, 0.0, 0.0)",-0.012748,0.773839,-0.09965,"(0.0, 0.0, 0.0, 0.0, 0.0, 0.0, 0.0, 0.0, 0.0)",1.1,0.094,-11.729,"(0.0, 0.0, 0.0, 0.0, 0.0, 0.0, 0.0, 0.0, 0.0)",0,0,0,imu1_frame,0.206,0.0618,0.4054,"(0.0, 0.0, 0.0, 0.0, 0.0, 0.0, 0.0, 0.0, 0.0)"
1677822690.1861491,0,1677822690,183647632,imu1_frame,0,0,0,,-0.4153907219166606,0.5788572086713432,0.42868370301842357,0.5555224233828806,"(0.0, 0.0, 0.0, 0.0, 0.0, 0.0, 0.0, 0.0, 0.0)",-0.406567,0.814585,-0.199975,"(0.0, 0.0, 0.0, 0.0, 0.0, 0.0, 0.0, 0.0, 0.0)",1.145,1.397,-13.512,"(0.0, 0.0, 0.0, 0.0, 0.0, 0.0, 0.0, 0.0, 0.0)",0,0,0,imu1_frame,0.2022,0.0619,0.3998,"(0.0, 0.0, 0.0, 0.0, 0.0, 0.0, 0.0, 0.0, 0.0)"
1677822690.2862675,0,1677822690,283650159,imu1_frame,0,0,0,,-0.6566947852276647,-0.1697448292639771,0.37568054056268074,0.6315083399571747,"(0.0, 0.0, 0.0, 0.0, 0.0, 0.0, 0.0, 0.0, 0.0)",-0.182787,1.179922,-0.004288,"(0.0, 0.0, 0.0, 0.0, 0.0, 0.0, 0.0, 0.0, 0.0)",1.178,2.451,-13.169,"(0.0, 0.0, 0.0, 0.0, 0.0, 0.0, 0.0, 0.0, 0.0)",0,0,0,imu1_frame,0.1909,0.0555,0.4017,"(0.0, 0.0, 0.0, 0.0, 0.0, 0.0, 0.0, 0.0, 0.0)"
1677822690.3862255,0,1677822690,383550882,imu1_frame,0,0,0,,0.04752612944990803,-0.6913995432303641,0.285378395118864,0.6620174546337398,"(0.0, 0.0, 0.0, 0.0, 0.0, 0.0, 0.0, 0.0, 0.0)",-0.094583,1.362211,0.120625,"(0.0, 0.0, 0.0, 0.0, 0.0, 0.0, 0.0, 0.0, 0.0)",1.297,1.953,-11.595,"(0.0, 0.0, 0.0, 0.0, 0.0, 0.0, 0.0, 0.0, 0.0)",0,0,0,imu1_frame,0.1787,0.0548,0.4067,"(0.0, 0.0, 0.0, 0.0, 0.0, 0.0, 0.0, 0.0, 0.0)"
1677822690.4859812,0,1677822690,483494281,imu1_frame,0,0,0,,0.8167692217663809,-0.00017631919544491836,0.15806740487586748,0.5548898114062741,"(0.0, 0.0, 0.0, 0.0, 0.0, 0.0, 0.0, 0.0, 0.0)",0.011552,1.55455,0.231494,"(0.0, 0.0, 0.0, 0.0, 0.0, 0.0, 0.0, 0.0, 0.0)",1.562,2.264,-10.878,"(0.0, 0.0, 0.0, 0.0, 0.0, 0.0, 0.0, 0.0, 0.0)",0,0,0,imu1_frame,0.1655,0.0504,0.4053,"(0.0, 0.0, 0.0, 0.0, 0.0, 0.0, 0.0, 0.0, 0.0)"
1677822690.5870078,0,1677822690,584297418,imu1_frame,0,0,0,,0.23901295606035558,0.7008488574249361,-0.15688080505324184,0.6535075354479845,"(0.0, 0.0, 0.0, 0.0, 0.0, 0.0, 0.0, 0.0, 0.0)",0.072596,1.620797,0.315007,"(0.0, 0.0, 0.0, 0.0, 0.0, 0.0, 0.0, 0.0, 0.0)",1.598,2.484,-9.872,"(0.0, 0.0, 0.0, 0.0, 0.0, 0.0, 0.0, 0.0, 0.0)",0,0,0,imu1_frame,0.1486,0.0508,0.4102,"(0.0, 0.0, 0.0, 0.0, 0.0, 0.0, 0.0, 0.0, 0.0)"
1677822690.6926794,0,1677822690,687524318,imu1_frame,0,0,0,,-0.12228802396796526,-0.015244940566336084,0.2661918380731303,0.9560100084854696,"(0.0, 0.0, 0.0, 0.0, 0.0, 0.0, 0.0, 0.0, 0.0)",-0.015115,1.693699,0.426234,"(0.0, 0.0, 0.0, 0.0, 0.0, 0.0, 0.0, 0.0, 0.0)",1.721,1.557,-8.068,"(0.0, 0.0, 0.0, 0.0, 0.0, 0.0, 0.0, 0.0, 0.0)",0,0,0,imu1_frame,0.1317,0.0541,0.415,"(0.0, 0.0, 0.0, 0.0, 0.0, 0.0, 0.0, 0.0, 0.0)"
1677822690.786124,0,1677822690,783731460,imu1_frame,0,0,0,,0.6320713297029482,-0.21304071580366457,0.7018110956699303,0.2501213177079902,"(0.0, 0.0, 0.0, 0.0, 0.0, 0.0, 0.0, 0.0, 0.0)",-0.052901,1.478097,0.379403,"(0.0, 0.0, 0.0, 0.0, 0.0, 0.0, 0.0, 0.0, 0.0)",2.01,1.903,-7.379,"(0.0, 0.0, 0.0, 0.0, 0.0, 0.0, 0.0, 0.0, 0.0)",0,0,0,imu1_frame,0.1204,0.0515,0.4114,"(0.0, 0.0, 0.0, 0.0, 0.0, 0.0, 0.0, 0.0, 0.0)"
1677822690.8999832,0,1677822690,893412590,imu1_frame,0,0,0,,0.7424699884762227,0.5054352615047171,-0.05841161467657949,-0.4357311050529339,"(0.0, 0.0, 0.0, 0.0, 0.0, 0.0, 0.0, 0.0, 0.0)",0.218739,1.449194,0.53635,"(0.0, 0.0, 0.0, 0.0, 0.0, 0.0, 0.0, 0.0, 0.0)",2.441,1.387,-6.953,"(0.0, 0.0, 0.0, 0.0, 0.0, 0.0, 0.0, 0.0, 0.0)",0,0,0,imu1_frame,0.1025,0.0501,0.4109,"(0.0, 0.0, 0.0, 0.0, 0.0, 0.0, 0.0, 0.0, 0.0)"
1677822690.9863894,0,1677822690,984032869,imu1_frame,0,0,0,,0.4129117795128519,0.5316928466031553,-0.7177947052447669,0.1777001416238656,"(0.0, 0.0, 0.0, 0.0, 0.0, 0.0, 0.0, 0.0, 0.0)",0.111133,1.369979,0.388656,"(0.0, 0.0, 0.0, 0.0, 0.0, 0.0, 0.0, 0.0, 0.0)",2.846,0.028,-5.474,"(0.0, 0.0, 0.0, 0.0, 0.0, 0.0, 0.0, 0.0, 0.0)",0,0,0,imu1_frame,0.0874,0.0562,0.4103,"(0.0, 0.0, 0.0, 0.0, 0.0, 0.0, 0.0, 0.0, 0.0)"
1677822691.0951002,0,1677822691,88949441,imu1_frame,0,0,0,,0.5556130606068226,0.6119878135403319,-0.1860022018317967,0.5311950902210664,"(0.0, 0.0, 0.0, 0.0, 0.0, 0.0, 0.0, 0.0, 0.0)",0.130131,1.167199,0.257595,"(0.0, 0.0, 0.0, 0.0, 0.0, 0.0, 0.0, 0.0, 0.0)",3.08,0.55,-4.281,"(0.0, 0.0, 0.0, 0.0, 0.0, 0.0, 0.0, 0.0, 0.0)",0,0,0,imu1_frame,0.0752,0.0508,0.41,"(0.0, 0.0, 0.0, 0.0, 0.0, 0.0, 0.0, 0.0, 0.0)"
1677822691.186396,0,1677822691,184098720,imu1_frame,0,0,0,,0.30398266832212606,0.9500461904798708,-0.07068436636050081,0.0032393929461691402,"(0.0, 0.0, 0.0, 0.0, 0.0, 0.0, 0.0, 0.0, 0.0)",0.367685,0.972953,0.283779,"(0.0, 0.0, 0.0, 0.0, 0.0, 0.0, 0.0, 0.0, 0.0)",3.692,0.44,-3.383,"(0.0, 0.0, 0.0, 0.0, 0.0, 0.0, 0.0, 0.0, 0.0)",0,0,0,imu1_frame,0.0639,0.0539,0.4041,"(0.0, 0.0, 0.0, 0.0, 0.0, 0.0, 0.0, 0.0, 0.0)"
1677822691.2920167,0,1677822691,287141084,imu1_frame,0,0,0,,-0.3379292581996679,0.7991071967505744,-0.45887768920839145,-0.19147524879427086,"(0.0, 0.0, 0.0, 0.0, 0.0, 0.0, 0.0, 0.0, 0.0)",0.103348,0.74167,0.225156,"(0.0, 0.0, 0.0, 0.0, 0.0, 0.0, 0.0, 0.0, 0.0)",3.98,-0.485,-3.228,"(0.0, 0.0, 0.0, 0.0, 0.0, 0.0, 0.0, 0.0, 0.0)",0,0,0,imu1_frame,0.0545,0.0571,0.4092,"(0.0, 0.0, 0.0, 0.0, 0.0, 0.0, 0.0, 0.0, 0.0)"
1677822691.386841,0,1677822691,384285926,imu1_frame,0,0,0,,-0.6453456704938035,0.4077311163411389,-0.628921369149086,-0.14745241188176944,"(0.0, 0.0, 0.0, 0.0, 0.0, 0.0, 0.0, 0.0, 0.0)",-0.0977,0.48636,0.080997,"(0.0, 0.0, 0.0, 0.0, 0.0, 0.0, 0.0, 0.0, 0.0)",4.249,-0.946,-3.384,"(0.0, 0.0, 0.0, 0.0, 0.0, 0.0, 0.0, 0.0, 0.0)",0,0,0,imu1_frame,0.0507,0.06,0.4069,"(0.0, 0.0, 0.0, 0.0, 0.0, 0.0, 0.0, 0.0, 0.0)"
1677822691.490224,0,1677822691,487806558,imu1_frame,0,0,0,,-0.7006949655297101,0.07866219804260277,-0.7032253027364497,-0.09117564078005408,"(0.0, 0.0, 0.0, 0.0, 0.0, 0.0, 0.0, 0.0, 0.0)",0.049943,0.316482,0.08088,"(0.0, 0.0, 0.0, 0.0, 0.0, 0.0, 0.0, 0.0, 0.0)",4.608,0.236,-3.57,"(0.0, 0.0, 0.0, 0.0, 0.0, 0.0, 0.0, 0.0, 0.0)",0,0,0,imu1_frame,0.045,0.0583,0.4089,"(0.0, 0.0, 0.0, 0.0, 0.0, 0.0, 0.0, 0.0, 0.0)"
1677822691.600525,0,1677822691,593892335,imu1_frame,0,0,0,,-0.6697459828451002,-0.20983567383054255,-0.7086170462201735,0.07260296314289982,"(0.0, 0.0, 0.0, 0.0, 0.0, 0.0, 0.0, 0.0, 0.0)",0.056035,0.25502,0.134083,"(0.0, 0.0, 0.0, 0.0, 0.0, 0.0, 0.0, 0.0, 0.0)",4.958,-0.488,-4.465,"(0.0, 0.0, 0.0, 0.0, 0.0, 0.0, 0.0, 0.0, 0.0)",0,0,0,imu1_frame,0.0441,0.0592,0.4078,"(0.0, 0.0, 0.0, 0.0, 0.0, 0.0, 0.0, 0.0, 0.0)"
1677822691.6956344,0,1677822691,689388513,imu1_frame,0,0,0,,-0.6070258411715088,-0.37283488525552927,-0.681496232112603,0.16756092057172423,"(0.0, 0.0, 0.0, 0.0, 0.0, 0.0, 0.0, 0.0, 0.0)",-0.032297,0.079192,0.069934,"(0.0, 0.0, 0.0, 0.0, 0.0, 0.0, 0.0, 0.0, 0.0)",5.223,-0.609,-4.266,"(0.0, 0.0, 0.0, 0.0, 0.0, 0.0, 0.0, 0.0, 0.0)",0,0,0,imu1_frame,0.0394,0.0584,0.4021,"(0.0, 0.0, 0.0, 0.0, 0.0, 0.0, 0.0, 0.0, 0.0)"
1677822691.786061,0,1677822691,783737182,imu1_frame,0,0,0,,-0.5773882667254804,-0.4189745860705162,-0.679321346931044,0.17206275970871004,"(0.0, 0.0, 0.0, 0.0, 0.0, 0.0, 0.0, 0.0, 0.0)",0.03215,0.085403,-0.001534,"(0.0, 0.0, 0.0, 0.0, 0.0, 0.0, 0.0, 0.0, 0.0)",5.314,-0.431,-5.943,"(0.0, 0.0, 0.0, 0.0, 0.0, 0.0, 0.0, 0.0, 0.0)",0,0,0,imu1_frame,0.0422,0.066,0.4033,"(0.0, 0.0, 0.0, 0.0, 0.0, 0.0, 0.0, 0.0, 0.0)"
1677822691.8857043,0,1677822691,883417606,imu1_frame,0,0,0,,-0.5077556836515847,-0.5671494447515585,-0.6073000723402595,0.22740337546533124,"(0.0, 0.0, 0.0, 0.0, 0.0, 0.0, 0.0, 0.0, 0.0)",0.260695,0.100123,-0.03026,"(0.0, 0.0, 0.0, 0.0, 0.0, 0.0, 0.0, 0.0, 0.0)",5.426,-0.537,-6.42,"(0.0, 0.0, 0.0, 0.0, 0.0, 0.0, 0.0, 0.0, 0.0)",0,0,0,imu1_frame,0.0394,0.0574,0.4054,"(0.0, 0.0, 0.0, 0.0, 0.0, 0.0, 0.0, 0.0, 0.0)"
1677822691.9920442,0,1677822691,987190723,imu1_frame,0,0,0,,-0.409575445465875,-0.7378688471443503,-0.4474620012565911,0.2959312019992889,"(0.0, 0.0, 0.0, 0.0, 0.0, 0.0, 0.0, 0.0, 0.0)",0.297888,0.06613,-0.030318,"(0.0, 0.0, 0.0, 0.0, 0.0, 0.0, 0.0, 0.0, 0.0)",5.624,-0.933,-6.164,"(0.0, 0.0, 0.0, 0.0, 0.0, 0.0, 0.0, 0.0, 0.0)",0,0,0,imu1_frame,0.0413,0.0689,0.4065,"(0.0, 0.0, 0.0, 0.0, 0.0, 0.0, 0.0, 0.0, 0.0)"
1677822692.094276,0,1677822692,88390827,imu1_frame,0,0,0,,-0.38774035214860153,-0.8111116923127605,-0.33805922765633223,0.2783364879163572,"(0.0, 0.0, 0.0, 0.0, 0.0, 0.0, 0.0, 0.0, 0.0)",0.154491,0.015118,-0.134192,"(0.0, 0.0, 0.0, 0.0, 0.0, 0.0, 0.0, 0.0, 0.0)",5.606,-0.873,-6.542,"(0.0, 0.0, 0.0, 0.0, 0.0, 0.0, 0.0, 0.0, 0.0)",0,0,0,imu1_frame,0.0394,0.0642,0.4065,"(0.0, 0.0, 0.0, 0.0, 0.0, 0.0, 0.0, 0.0, 0.0)"
1677822692.191547,0,1677822692,186845302,imu1_frame,0,0,0,,-0.41116163474505424,-0.8430557738360053,-0.24835700336406002,0.24191294135612734,"(0.0, 0.0, 0.0, 0.0, 0.0, 0.0, 0.0, 0.0, 0.0)",0.23046,0.022051,-0.096533,"(0.0, 0.0, 0.0, 0.0, 0.0, 0.0, 0.0, 0.0, 0.0)",5.929,-0.453,-6.786,"(0.0, 0.0, 0.0, 0.0, 0.0, 0.0, 0.0, 0.0, 0.0)",0,0,0,imu1_frame,0.0375,0.071,0.4074,"(0.0, 0.0, 0.0, 0.0, 0.0, 0.0, 0.0, 0.0, 0.0)"
1677822692.2875395,0,1677822692,285157680,imu1_frame,0,0,0,,-0.4317946895179508,-0.8509643805265197,-0.09734372365002635,0.28273161946475034,"(0.0, 0.0, 0.0, 0.0, 0.0, 0.0, 0.0, 0.0, 0.0)",0.392733,-0.068296,-0.115854,"(0.0, 0.0, 0.0, 0.0, 0.0, 0.0, 0.0, 0.0, 0.0)",5.952,-0.882,-7.191,"(0.0, 0.0, 0.0, 0.0, 0.0, 0.0, 0.0, 0.0, 0.0)",0,0,0,imu1_frame,0.0432,0.0698,0.4043,"(0.0, 0.0, 0.0, 0.0, 0.0, 0.0, 0.0, 0.0, 0.0)"
1677822692.3861542,0,1677822692,383640527,imu1_frame,0,0,0,,-0.4206422601967834,-0.7866724376519254,0.10745235255381189,0.43893115258086923,"(0.0, 0.0, 0.0, 0.0, 0.0, 0.0, 0.0, 0.0, 0.0)",0.628572,-0.199095,-0.084855,"(0.0, 0.0, 0.0, 0.0, 0.0, 0.0, 0.0, 0.0, 0.0)",5.864,-1.157,-8.03,"(0.0, 0.0, 0.0, 0.0, 0.0, 0.0, 0.0, 0.0, 0.0)",0,0,0,imu1_frame,0.0413,0.0747,0.4086,"(0.0, 0.0, 0.0, 0.0, 0.0, 0.0, 0.0, 0.0, 0.0)"
1677822692.4859118,0,1677822692,483478069,imu1_frame,0,0,0,,-0.27665888101389113,-0.6696891934747287,0.28549739542621555,0.6272698660896732,"(0.0, 0.0, 0.0, 0.0, 0.0, 0.0, 0.0, 0.0, 0.0)",0.588167,-0.145731,-0.043346,"(0.0, 0.0, 0.0, 0.0, 0.0, 0.0, 0.0, 0.0, 0.0)",6.024,-2.095,-8.157,"(0.0, 0.0, 0.0, 0.0, 0.0, 0.0, 0.0, 0.0, 0.0)",0,0,0,imu1_frame,0.0432,0.0804,0.4108,"(0.0, 0.0, 0.0, 0.0, 0.0, 0.0, 0.0, 0.0, 0.0)"
1677822692.5904932,0,1677822692,586019515,imu1_frame,0,0,0,,-0.10382090584350215,-0.567603986166953,0.3799915976895548,0.7229476606799136,"(0.0, 0.0, 0.0, 0.0, 0.0, 0.0, 0.0, 0.0, 0.0)",0.385618,-0.09591,-0.067818,"(0.0, 0.0, 0.0, 0.0, 0.0, 0.0, 0.0, 0.0, 0.0)",5.678,-3.171,-7.797,"(0.0, 0.0, 0.0, 0.0, 0.0, 0.0, 0.0, 0.0, 0.0)",0,0,0,imu1_frame,0.047,0.0861,0.4054,"(0.0, 0.0, 0.0, 0.0, 0.0, 0.0, 0.0, 0.0, 0.0)"
1677822692.6867967,0,1677822692,684162616,imu1_frame,0,0,0,,0.024669418712430974,-0.5173333161415248,0.3584153214726673,0.7767213896398428,"(0.0, 0.0, 0.0, 0.0, 0.0, 0.0, 0.0, 0.0, 0.0)",0.403901,-0.197044,-0.001131,"(0.0, 0.0, 0.0, 0.0, 0.0, 0.0, 0.0, 0.0, 0.0)",5.394,-3.448,-8.315,"(0.0, 0.0, 0.0, 0.0, 0.0, 0.0, 0.0, 0.0, 0.0)",0,0,0,imu1_frame,0.0489,0.0832,0.4131,"(0.0, 0.0, 0.0, 0.0, 0.0, 0.0, 0.0, 0.0, 0.0)"
1677822692.7860491,0,1677822692,783660888,imu1_frame,0,0,0,,0.30199130574245314,-0.5192860424001399,0.3983571820061021,0.6931484782992208,"(0.0, 0.0, 0.0, 0.0, 0.0, 0.0, 0.0, 0.0, 0.0)",0.50307,-0.230672,0.134638,"(0.0, 0.0, 0.0, 0.0, 0.0, 0.0, 0.0, 0.0, 0.0)",5.066,-6.167,-7.912,"(0.0, 0.0, 0.0, 0.0, 0.0, 0.0, 0.0, 0.0, 0.0)",0,0,0,imu1_frame,0.0479,0.0899,0.4109,"(0.0, 0.0, 0.0, 0.0, 0.0, 0.0, 0.0, 0.0, 0.0)"
1677822692.8862665,0,1677822692,883967161,imu1_frame,0,0,0,,0.393972055643567,-0.687821149996802,0.36246465896461444,0.49021164407909035,"(0.0, 0.0, 0.0, 0.0, 0.0, 0.0, 0.0, 0.0, 0.0)",0.354841,-0.58446,0.205485,"(0.0, 0.0, 0.0, 0.0, 0.0, 0.0, 0.0, 0.0, 0.0)",3.578,-8.489,-7.152,"(0.0, 0.0, 0.0, 0.0, 0.0, 0.0, 0.0, 0.0, 0.0)",0,0,0,imu1_frame,0.0526,0.0917,0.411,"(0.0, 0.0, 0.0, 0.0, 0.0, 0.0, 0.0, 0.0, 0.0)"
1677822692.9861434,0,1677822692,983758449,imu1_frame,0,0,0,,0.19828012336693487,-0.8802077709099938,0.42979768849940286,-0.034543011852229494,"(0.0, 0.0, 0.0, 0.0, 0.0, 0.0, 0.0, 0.0, 0.0)",0.346883,-0.759859,0.493652,"(0.0, 0.0, 0.0, 0.0, 0.0, 0.0, 0.0, 0.0, 0.0)",2.496,-16.514,-8.563,"(0.0, 0.0, 0.0, 0.0, 0.0, 0.0, 0.0, 0.0, 0.0)",0,0,0,imu1_frame,0.0621,0.0915,0.408,"(0.0, 0.0, 0.0, 0.0, 0.0, 0.0, 0.0, 0.0, 0.0)"
1677822693.0937946,0,1677822693,88100194,imu1_frame,0,0,0,,-0.36331840281565775,-0.8776938560161311,0.2570372825841674,-0.17772188567748548,"(0.0, 0.0, 0.0, 0.0, 0.0, 0.0, 0.0, 0.0, 0.0)",-0.266708,-0.819057,-1.067256,"(0.0, 0.0, 0.0, 0.0, 0.0, 0.0, 0.0, 0.0, 0.0)",-3.103,-29.589,-12.135,"(0.0, 0.0, 0.0, 0.0, 0.0, 0.0, 0.0, 0.0, 0.0)",0,0,0,imu1_frame,0.0715,0.0884,0.4138,"(0.0, 0.0, 0.0, 0.0, 0.0, 0.0, 0.0, 0.0, 0.0)"
1677822693.1908674,0,1677822693,186460971,imu1_frame,0,0,0,,-0.7561783747532996,0.4006763884292635,-0.08768191001853298,-0.5098672179756627,"(0.0, 0.0, 0.0, 0.0, 0.0, 0.0, 0.0, 0.0, 0.0)",-0.013324,-0.665196,-2.436394,"(0.0, 0.0, 0.0, 0.0, 0.0, 0.0, 0.0, 0.0, 0.0)",-6.826,-30.901,-22.445,"(0.0, 0.0, 0.0, 0.0, 0.0, 0.0, 0.0, 0.0, 0.0)",0,0,0,imu1_frame,0.0884,0.086,0.4111,"(0.0, 0.0, 0.0, 0.0, 0.0, 0.0, 0.0, 0.0, 0.0)"
1677822693.2905583,0,1677822693,286327362,imu1_frame,0,0,0,,0.26832834018602675,-0.7109903507482285,-0.16004621016863468,-0.6299824073786348,"(0.0, 0.0, 0.0, 0.0, 0.0, 0.0, 0.0, 0.0, 0.0)",0.345351,1.076615,-5.182359,"(0.0, 0.0, 0.0, 0.0, 0.0, 0.0, 0.0, 0.0, 0.0)",-11.363,-32.993,-34.653,"(0.0, 0.0, 0.0, 0.0, 0.0, 0.0, 0.0, 0.0, 0.0)",0,0,0,imu1_frame,0.0959,0.0829,0.4136,"(0.0, 0.0, 0.0, 0.0, 0.0, 0.0, 0.0, 0.0, 0.0)"
1677822693.3915498,0,1677822693,386730432,imu1_frame,0,0,0,,0.004615575222377433,0.6581275278090383,-0.3981855692734205,-0.6389797383546152,"(0.0, 0.0, 0.0, 0.0, 0.0, 0.0, 0.0, 0.0, 0.0)",0.828852,3.45544,-7.554896,"(0.0, 0.0, 0.0, 0.0, 0.0, 0.0, 0.0, 0.0, 0.0)",-19.435,-13.367,-26.224,"(0.0, 0.0, 0.0, 0.0, 0.0, 0.0, 0.0, 0.0, 0.0)",0,0,0,imu1_frame,0.0922,0.085,0.4124,"(0.0, 0.0, 0.0, 0.0, 0.0, 0.0, 0.0, 0.0, 0.0)"
1677822693.4972143,0,1677822693,490143060,imu1_frame,0,0,0,,-0.12899649362473917,-0.1790492187000102,-0.325268189093877,-0.9195117656011959,"(0.0, 0.0, 0.0, 0.0, 0.0, 0.0, 0.0, 0.0, 0.0)",-0.465426,4.175502,-7.918606,"(0.0, 0.0, 0.0, 0.0, 0.0, 0.0, 0.0, 0.0, 0.0)",-19.076,12.84,-10.199,"(0.0, 0.0, 0.0, 0.0, 0.0, 0.0, 0.0, 0.0, 0.0)",0,0,0,imu1_frame,0.0752,0.0873,0.403,"(0.0, 0.0, 0.0, 0.0, 0.0, 0.0, 0.0, 0.0, 0.0)"
1677822693.5936193,0,1677822693,588240861,imu1_frame,0,0,0,,0.4850653694284013,-0.13870497965758366,0.08618752474630847,-0.8590950043956621,"(0.0, 0.0, 0.0, 0.0, 0.0, 0.0, 0.0, 0.0, 0.0)",-2.358531,2.854897,-6.302243,"(0.0, 0.0, 0.0, 0.0, 0.0, 0.0, 0.0, 0.0, 0.0)",-10.377,42.628,9.953,"(0.0, 0.0, 0.0, 0.0, 0.0, 0.0, 0.0, 0.0, 0.0)",0,0,0,imu1_frame,0.0545,0.0792,0.4002,"(0.0, 0.0, 0.0, 0.0, 0.0, 0.0, 0.0, 0.0, 0.0)"
1677822693.6903276,0,1677822693,687440156,imu1_frame,0,0,0,,-0.5732820038704711,-0.15399147762882545,-0.7375375529331331,-0.3219824946629153,"(0.0, 0.0, 0.0, 0.0, 0.0, 0.0, 0.0, 0.0, 0.0)",0.859789,1.071398,-1.909585,"(0.0, 0.0, 0.0, 0.0, 0.0, 0.0, 0.0, 0.0, 0.0)",-1.327,35.58,4.088,"(0.0, 0.0, 0.0, 0.0, 0.0, 0.0, 0.0, 0.0, 0.0)",0,0,0,imu1_frame,0.0469,0.0688,0.4034,"(0.0, 0.0, 0.0, 0.0, 0.0, 0.0, 0.0, 0.0, 0.0)"
1677822693.886499,0,1677822693,883658409,imu1_frame,0,0,0,,0.37248260887003726,-0.8367283045701028,0.09985735904546919,-0.3888070964695427,"(0.0, 0.0, 0.0, 0.0, 0.0, 0.0, 0.0, 0.0, 0.0)",1.858128,0.365969,-0.942395,"(0.0, 0.0, 0.0, 0.0, 0.0, 0.0, 0.0, 0.0, 0.0)",3.24,22.984,3.769,"(0.0, 0.0, 0.0, 0.0, 0.0, 0.0, 0.0, 0.0, 0.0)",0,0,0,imu1_frame,0.0367,0.1047,0.4093,"(0.0, 0.0, 0.0, 0.0, 0.0, 0.0, 0.0, 0.0, 0.0)"
1677822694.0873983,0,1677822694,83958864,imu1_frame,0,0,0,,-0.23546719508884623,-0.7568348333379665,0.21531062590836425,0.570436297455055,"(0.0, 0.0, 0.0, 0.0, 0.0, 0.0, 0.0, 0.0, 0.0)",-0.391441,-0.181142,-1.135106,"(0.0, 0.0, 0.0, 0.0, 0.0, 0.0, 0.0, 0.0, 0.0)",1.907,-5.823,-8.193,"(0.0, 0.0, 0.0, 0.0, 0.0, 0.0, 0.0, 0.0, 0.0)",0,0,0,imu1_frame,0.0659,0.1491,0.4043,"(0.0, 0.0, 0.0, 0.0, 0.0, 0.0, 0.0, 0.0, 0.0)"
1677822694.1864588,0,1677822694,183599472,imu1_frame,0,0,0,,-0.6461665820102506,-0.062237245179190964,-0.7504685646124092,0.12406533413603381,"(0.0, 0.0, 0.0, 0.0, 0.0, 0.0, 0.0, 0.0, 0.0)",-0.630637,-0.239789,-0.823755,"(0.0, 0.0, 0.0, 0.0, 0.0, 0.0, 0.0, 0.0, 0.0)",-0.181,-15.704,-6.175,"(0.0, 0.0, 0.0, 0.0, 0.0, 0.0, 0.0, 0.0, 0.0)",0,0,0,imu1_frame,0.0706,0.1384,0.41,"(0.0, 0.0, 0.0, 0.0, 0.0, 0.0, 0.0, 0.0, 0.0)"
1677822694.2863927,0,1677822694,283826589,imu1_frame,0,0,0,,0.8213131937797197,0.5389046550768427,-0.05727584752808984,-0.17817375718608255,"(0.0, 0.0, 0.0, 0.0, 0.0, 0.0, 0.0, 0.0, 0.0)",-0.227114,-0.509761,-3.21799,"(0.0, 0.0, 0.0, 0.0, 0.0, 0.0, 0.0, 0.0, 0.0)",-6.369,-39.829,-13.772,"(0.0, 0.0, 0.0, 0.0, 0.0, 0.0, 0.0, 0.0, 0.0)",0,0,0,imu1_frame,0.08,0.1372,0.4115,"(0.0, 0.0, 0.0, 0.0, 0.0, 0.0, 0.0, 0.0, 0.0)"
1677822694.3861146,0,1677822694,383676767,imu1_frame,0,0,0,,-0.3302932830980441,0.5274294972892655,-0.6508915913677211,0.4348156032346395,"(0.0, 0.0, 0.0, 0.0, 0.0, 0.0, 0.0, 0.0, 0.0)",1.55913,-0.207763,-8.229423,"(0.0, 0.0, 0.0, 0.0, 0.0, 0.0, 0.0, 0.0, 0.0)",-12.308,-11.306,-25.622,"(0.0, 0.0, 0.0, 0.0, 0.0, 0.0, 0.0, 0.0, 0.0)",0,0,0,imu1_frame,0.0857,0.1419,0.4061,"(0.0, 0.0, 0.0, 0.0, 0.0, 0.0, 0.0, 0.0, 0.0)"
1677822694.4862692,0,1677822694,483745813,imu1_frame,0,0,0,,-0.08089889724351138,0.6757020575297912,0.0015631615593024728,0.7327207206028299,"(0.0, 0.0, 0.0, 0.0, 0.0, 0.0, 0.0, 0.0, 0.0)",1.496096,1.306597,-5.991108,"(0.0, 0.0, 0.0, 0.0, 0.0, 0.0, 0.0, 0.0, 0.0)",-5.57,27.977,-23.776,"(0.0, 0.0, 0.0, 0.0, 0.0, 0.0, 0.0, 0.0, 0.0)",0,0,0,imu1_frame,0.0819,0.1632,0.4047,"(0.0, 0.0, 0.0, 0.0, 0.0, 0.0, 0.0, 0.0, 0.0)"
1677822694.5856924,0,1677822694,583350419,imu1_frame,0,0,0,,-0.49476623384021146,-0.3990121157709983,0.18717113535698982,-0.7489744130534101,"(0.0, 0.0, 0.0, 0.0, 0.0, 0.0, 0.0, 0.0, 0.0)",-0.758962,2.458494,-3.505386,"(0.0, 0.0, 0.0, 0.0, 0.0, 0.0, 0.0, 0.0, 0.0)",-2.292,24.896,-6.228,"(0.0, 0.0, 0.0, 0.0, 0.0, 0.0, 0.0, 0.0, 0.0)",0,0,0,imu1_frame,0.0622,0.1646,0.4084,"(0.0, 0.0, 0.0, 0.0, 0.0, 0.0, 0.0, 0.0, 0.0)"
1677822694.6863284,0,1677822694,683894157,imu1_frame,0,0,0,,0.4227539500366112,0.4506119060472154,0.4071915853151358,-0.6726239816609904,"(0.0, 0.0, 0.0, 0.0, 0.0, 0.0, 0.0, 0.0, 0.0)",-1.049687,0.713043,-1.552089,"(0.0, 0.0, 0.0, 0.0, 0.0, 0.0, 0.0, 0.0, 0.0)",2.587,29.744,1.353,"(0.0, 0.0, 0.0, 0.0, 0.0, 0.0, 0.0, 0.0, 0.0)",0,0,0,imu1_frame,0.0452,0.1593,0.4024,"(0.0, 0.0, 0.0, 0.0, 0.0, 0.0, 0.0, 0.0, 0.0)"
1677822694.7861283,0,1677822694,783794403,imu1_frame,0,0,0,,0.6261820993275816,0.05330692476020793,0.48397573227216006,0.6089514273125063,"(0.0, 0.0, 0.0, 0.0, 0.0, 0.0, 0.0, 0.0, 0.0)",0.94706,0.4214,-0.700953,"(0.0, 0.0, 0.0, 0.0, 0.0, 0.0, 0.0, 0.0, 0.0)",3.587,19.297,0.603,"(0.0, 0.0, 0.0, 0.0, 0.0, 0.0, 0.0, 0.0, 0.0)",0,0,0,imu1_frame,0.0405,0.1594,0.4023,"(0.0, 0.0, 0.0, 0.0, 0.0, 0.0, 0.0, 0.0, 0.0)"
1677822694.8937888,0,1677822694,888218879,imu1_frame,0,0,0,,0.6756433345768181,-0.15692517744085388,-0.02032259504322874,0.7200469187891738,"(0.0, 0.0, 0.0, 0.0, 0.0, 0.0, 0.0, 0.0, 0.0)",0.590187,-0.030552,-0.240888,"(0.0, 0.0, 0.0, 0.0, 0.0, 0.0, 0.0, 0.0, 0.0)",3.981,13.767,-3.095,"(0.0, 0.0, 0.0, 0.0, 0.0, 0.0, 0.0, 0.0, 0.0)",0,0,0,imu1_frame,0.0415,0.169,0.4044,"(0.0, 0.0, 0.0, 0.0, 0.0, 0.0, 0.0, 0.0, 0.0)"
1677822694.9865255,0,1677822694,984176635,imu1_frame,0,0,0,,0.6189488704301904,-0.2549127268343149,-0.16277711800722586,0.7248623368228941,"(0.0, 0.0, 0.0, 0.0, 0.0, 0.0, 0.0, 0.0, 0.0)",-0.182436,-0.026336,-0.133677,"(0.0, 0.0, 0.0, 0.0, 0.0, 0.0, 0.0, 0.0, 0.0)",4.01,7.368,-4.181,"(0.0, 0.0, 0.0, 0.0, 0.0, 0.0, 0.0, 0.0, 0.0)",0,0,0,imu1_frame,0.0377,0.171,0.4054,"(0.0, 0.0, 0.0, 0.0, 0.0, 0.0, 0.0, 0.0, 0.0)"
1677822695.0898898,0,1677822695,86226701,imu1_frame,0,0,0,,-0.131870800515418,0.05907253993978378,-0.6620868586740248,0.7353648880437841,"(0.0, 0.0, 0.0, 0.0, 0.0, 0.0, 0.0, 0.0, 0.0)",-0.801713,-0.149386,-0.279078,"(0.0, 0.0, 0.0, 0.0, 0.0, 0.0, 0.0, 0.0, 0.0)",4.757,8.858,-4.798,"(0.0, 0.0, 0.0, 0.0, 0.0, 0.0, 0.0, 0.0, 0.0)",0,0,0,imu1_frame,0.0396,0.1652,0.4033,"(0.0, 0.0, 0.0, 0.0, 0.0, 0.0, 0.0, 0.0, 0.0)"
1677822695.1976342,0,1677822695,190771818,imu1_frame,0,0,0,,-0.30184333301440547,0.37967888236115704,-0.7744816016453429,0.40609456696267393,"(0.0, 0.0, 0.0, 0.0, 0.0, 0.0, 0.0, 0.0, 0.0)",0.422659,-0.149728,-0.069279,"(0.0, 0.0, 0.0, 0.0, 0.0, 0.0, 0.0, 0.0, 0.0)",5.497,9.226,-5.135,"(0.0, 0.0, 0.0, 0.0, 0.0, 0.0, 0.0, 0.0, 0.0)",0,0,0,imu1_frame,0.0387,0.171,0.4054,"(0.0, 0.0, 0.0, 0.0, 0.0, 0.0, 0.0, 0.0, 0.0)"
1677822695.2861257,0,1677822695,283846378,imu1_frame,0,0,0,,-0.2124783749941887,-0.2106412501976775,-0.7808208971539565,0.5484541279292907,"(0.0, 0.0, 0.0, 0.0, 0.0, 0.0, 0.0, 0.0, 0.0)",0.650529,-0.312374,0.257726,"(0.0, 0.0, 0.0, 0.0, 0.0, 0.0, 0.0, 0.0, 0.0)",5.279,5.538,-5.646,"(0.0, 0.0, 0.0, 0.0, 0.0, 0.0, 0.0, 0.0, 0.0)",0,0,0,imu1_frame,0.0415,0.1719,0.4044,"(0.0, 0.0, 0.0, 0.0, 0.0, 0.0, 0.0, 0.0, 0.0)"
1677822695.3859913,0,1677822695,383334875,imu1_frame,0,0,0,,-0.12404644289212804,-0.5521187483086023,-0.4249019984603539,0.7065661041094102,"(0.0, 0.0, 0.0, 0.0, 0.0, 0.0, 0.0, 0.0, 0.0)",-0.201543,-0.156963,0.238245,"(0.0, 0.0, 0.0, 0.0, 0.0, 0.0, 0.0, 0.0, 0.0)",5.563,1.055,-8.369,"(0.0, 0.0, 0.0, 0.0, 0.0, 0.0, 0.0, 0.0, 0.0)",0,0,0,imu1_frame,0.0452,0.1708,0.4056,"(0.0, 0.0, 0.0, 0.0, 0.0, 0.0, 0.0, 0.0, 0.0)"
1677822695.5010698,0,1677822695,494194269,imu1_frame,0,0,0,,-0.3106190373989931,-0.40728800234988544,-0.5728081183496652,0.6399399630433145,"(0.0, 0.0, 0.0, 0.0, 0.0, 0.0, 0.0, 0.0, 0.0)",-0.317681,0.113919,-0.12841,"(0.0, 0.0, 0.0, 0.0, 0.0, 0.0, 0.0, 0.0, 0.0)",5.79,1.544,-9.345,"(0.0, 0.0, 0.0, 0.0, 0.0, 0.0, 0.0, 0.0, 0.0)",0,0,0,imu1_frame,0.0443,0.1718,0.4034,"(0.0, 0.0, 0.0, 0.0, 0.0, 0.0, 0.0, 0.0, 0.0)"
1677822695.586721,0,1677822695,584264993,imu1_frame,0,0,0,,-0.3032376745019299,-0.16695959254656073,-0.7382201835453995,0.5789666379209987,"(0.0, 0.0, 0.0, 0.0, 0.0, 0.0, 0.0, 0.0, 0.0)",0.148427,0.205128,-0.149771,"(0.0, 0.0, 0.0, 0.0, 0.0, 0.0, 0.0, 0.0, 0.0)",5.78,3.284,-8.157,"(0.0, 0.0, 0.0, 0.0, 0.0, 0.0, 0.0, 0.0, 0.0)",0,0,0,imu1_frame,0.0434,0.1699,0.4034,"(0.0, 0.0, 0.0, 0.0, 0.0, 0.0, 0.0, 0.0, 0.0)"
1677822695.6898787,0,1677822695,687500238,imu1_frame,0,0,0,,-0.009294906612263454,-0.1946358306486879,-0.7324502028785671,0.6523397875661967,"(0.0, 0.0, 0.0, 0.0, 0.0, 0.0, 0.0, 0.0, 0.0)",0.244078,0.311022,-0.103818,"(0.0, 0.0, 0.0, 0.0, 0.0, 0.0, 0.0, 0.0, 0.0)",5.688,2.47,-6.393,"(0.0, 0.0, 0.0, 0.0, 0.0, 0.0, 0.0, 0.0, 0.0)",0,0,0,imu1_frame,0.0386,0.1672,0.4032,"(0.0, 0.0, 0.0, 0.0, 0.0, 0.0, 0.0, 0.0, 0.0)"
1677822695.7860756,0,1677822695,783812761,imu1_frame,0,0,0,,0.13193979218614033,-0.15711288035545545,-0.7528527393645172,0.6253960240484687,"(0.0, 0.0, 0.0, 0.0, 0.0, 0.0, 0.0, 0.0, 0.0)",0.057192,0.089134,-0.102685,"(0.0, 0.0, 0.0, 0.0, 0.0, 0.0, 0.0, 0.0, 0.0)",5.803,1.018,-6.007,"(0.0, 0.0, 0.0, 0.0, 0.0, 0.0, 0.0, 0.0, 0.0)",0,0,0,imu1_frame,0.0377,0.171,0.4086,"(0.0, 0.0, 0.0, 0.0, 0.0, 0.0, 0.0, 0.0, 0.0)"
1677822695.8898916,0,1677822695,887525081,imu1_frame,0,0,0,,0.08286653844572436,0.00853452082248184,-0.9079552075635638,0.41070383467720306,"(0.0, 0.0, 0.0, 0.0, 0.0, 0.0, 0.0, 0.0, 0.0)",0.11002,-0.045501,-0.213918,"(0.0, 0.0, 0.0, 0.0, 0.0, 0.0, 0.0, 0.0, 0.0)",6.026,2.101,-5.428,"(0.0, 0.0, 0.0, 0.0, 0.0, 0.0, 0.0, 0.0, 0.0)",0,0,0,imu1_frame,0.0387,0.1758,0.4032,"(0.0, 0.0, 0.0, 0.0, 0.0, 0.0, 0.0, 0.0, 0.0)"
1677822695.9915133,0,1677822695,986531496,imu1_frame,0,0,0,,0.054442248338862534,0.13613658995103614,-0.9843705747495777,0.09755737819098628,"(0.0, 0.0, 0.0, 0.0, 0.0, 0.0, 0.0, 0.0, 0.0)",0.252016,-0.163819,-0.128218,"(0.0, 0.0, 0.0, 0.0, 0.0, 0.0, 0.0, 0.0, 0.0)",6.058,2.863,-5.718,"(0.0, 0.0, 0.0, 0.0, 0.0, 0.0, 0.0, 0.0, 0.0)",0,0,0,imu1_frame,0.0387,0.17,0.4076,"(0.0, 0.0, 0.0, 0.0, 0.0, 0.0, 0.0, 0.0, 0.0)"
1677822696.0872562,0,1677822696,84439277,imu1_frame,0,0,0,,0.002549923755841021,0.14982232687211935,-0.9792706153454189,-0.1362931773071113,"(0.0, 0.0, 0.0, 0.0, 0.0, 0.0, 0.0, 0.0, 0.0)",0.238055,-0.183789,-0.038641,"(0.0, 0.0, 0.0, 0.0, 0.0, 0.0, 0.0, 0.0, 0.0)",5.832,2.325,-5.242,"(0.0, 0.0, 0.0, 0.0, 0.0, 0.0, 0.0, 0.0, 0.0)",0,0,0,imu1_frame,0.0396,0.1758,0.4032,"(0.0, 0.0, 0.0, 0.0, 0.0, 0.0, 0.0, 0.0, 0.0)"
1677822696.193481,0,1677822696,187641143,imu1_frame,0,0,0,,-0.08112515328441364,0.21992099809132054,-0.9205764205194332,-0.31239801229637426,"(0.0, 0.0, 0.0, 0.0, 0.0, 0.0, 0.0, 0.0, 0.0)",0.107084,-0.223416,-0.036433,"(0.0, 0.0, 0.0, 0.0, 0.0, 0.0, 0.0, 0.0, 0.0)",5.523,1.484,-4.189,"(0.0, 0.0, 0.0, 0.0, 0.0, 0.0, 0.0, 0.0, 0.0)",0,0,0,imu1_frame,0.0377,0.1816,0.4042,"(0.0, 0.0, 0.0, 0.0, 0.0, 0.0, 0.0, 0.0, 0.0)"
1677822696.291513,0,1677822696,286814928,imu1_frame,0,0,0,,-0.020315627996621455,0.474174913155774,-0.5993715139596307,-0.6445922860588368,"(0.0, 0.0, 0.0, 0.0, 0.0, 0.0, 0.0, 0.0, 0.0)",0.269322,-0.405673,-0.111457,"(0.0, 0.0, 0.0, 0.0, 0.0, 0.0, 0.0, 0.0, 0.0)",5.158,2.549,-3.655,"(0.0, 0.0, 0.0, 0.0, 0.0, 0.0, 0.0, 0.0, 0.0)",0,0,0,imu1_frame,0.0405,0.1787,0.4021,"(0.0, 0.0, 0.0, 0.0, 0.0, 0.0, 0.0, 0.0, 0.0)"
1677822696.3944366,0,1677822696,388604164,imu1_frame,0,0,0,,-0.003407502256632944,0.6451188529776744,-0.1675629633196358,-0.7454748203559147,"(0.0, 0.0, 0.0, 0.0, 0.0, 0.0, 0.0, 0.0, 0.0)",0.285832,-0.525264,0.031945,"(0.0, 0.0, 0.0, 0.0, 0.0, 0.0, 0.0, 0.0, 0.0)",4.699,2.423,-1.928,"(0.0, 0.0, 0.0, 0.0, 0.0, 0.0, 0.0, 0.0, 0.0)",0,0,0,imu1_frame,0.0453,0.1824,0.4055,"(0.0, 0.0, 0.0, 0.0, 0.0, 0.0, 0.0, 0.0, 0.0)"
1677822696.4861517,0,1677822696,483658075,imu1_frame,0,0,0,,0.14998135076530816,0.7307279020184717,0.5364208787331955,-0.39470871347539654,"(0.0, 0.0, 0.0, 0.0, 0.0, 0.0, 0.0, 0.0, 0.0)",0.075877,-0.871299,-0.018417,"(0.0, 0.0, 0.0, 0.0, 0.0, 0.0, 0.0, 0.0, 0.0)",4.194,0.8,-2.507,"(0.0, 0.0, 0.0, 0.0, 0.0, 0.0, 0.0, 0.0, 0.0)",0,0,0,imu1_frame,0.0528,0.1851,0.4003,"(0.0, 0.0, 0.0, 0.0, 0.0, 0.0, 0.0, 0.0, 0.0)"
1677822696.6004202,0,1677822696,592334747,imu1_frame,0,0,0,,0.05193434009117043,0.4145913075908662,0.7364535839232249,0.5320272462158565,"(0.0, 0.0, 0.0, 0.0, 0.0, 0.0, 0.0, 0.0, 0.0)",0.348376,-1.019643,-0.120417,"(0.0, 0.0, 0.0, 0.0, 0.0, 0.0, 0.0, 0.0, 0.0)",3.913,1.767,-4.415,"(0.0, 0.0, 0.0, 0.0, 0.0, 0.0, 0.0, 0.0, 0.0)",0,0,0,imu1_frame,0.0613,0.1906,0.4059,"(0.0, 0.0, 0.0, 0.0, 0.0, 0.0, 0.0, 0.0, 0.0)"
1677822696.693433,0,1677822696,687968254,imu1_frame,0,0,0,,-0.09973526635405455,0.7104869503726555,0.08086383466917768,0.691897543165204,"(0.0, 0.0, 0.0, 0.0, 0.0, 0.0, 0.0, 0.0, 0.0)",0.660953,-0.909229,0.002396,"(0.0, 0.0, 0.0, 0.0, 0.0, 0.0, 0.0, 0.0, 0.0)",3.363,0.877,-4.216,"(0.0, 0.0, 0.0, 0.0, 0.0, 0.0, 0.0, 0.0, 0.0)",0,0,0,imu1_frame,0.0632,0.1896,0.4016,"(0.0, 0.0, 0.0, 0.0, 0.0, 0.0, 0.0, 0.0, 0.0)"
1677822696.7855463,0,1677822696,783202409,imu1_frame,0,0,0,,0.15841123583648975,0.9599347574764715,-0.2238860211399575,0.05749948945392715,"(0.0, 0.0, 0.0, 0.0, 0.0, 0.0, 0.0, 0.0, 0.0)",0.429853,-1.140727,-0.16469,"(0.0, 0.0, 0.0, 0.0, 0.0, 0.0, 0.0, 0.0, 0.0)",3.169,-0.729,-3.905,"(0.0, 0.0, 0.0, 0.0, 0.0, 0.0, 0.0, 0.0, 0.0)",0,0,0,imu1_frame,0.0745,0.1922,0.402,"(0.0, 0.0, 0.0, 0.0, 0.0, 0.0, 0.0, 0.0, 0.0)"
1677822696.8946326,0,1677822696,888426780,imu1_frame,0,0,0,,0.7483342435993012,0.14005748423932682,0.6474628013412204,-0.03422983851249939,"(0.0, 0.0, 0.0, 0.0, 0.0, 0.0, 0.0, 0.0, 0.0)",0.337889,-1.32442,-0.285207,"(0.0, 0.0, 0.0, 0.0, 0.0, 0.0, 0.0, 0.0, 0.0)",2.994,1.244,-6.495,"(0.0, 0.0, 0.0, 0.0, 0.0, 0.0, 0.0, 0.0, 0.0)",0,0,0,imu1_frame,0.083,0.2016,0.4044,"(0.0, 0.0, 0.0, 0.0, 0.0, 0.0, 0.0, 0.0, 0.0)"
1677822696.994532,0,1677822696,988544464,imu1_frame,0,0,0,,-0.18704608698911218,-0.6020685187670454,0.7002130029593043,0.33500598582477703,"(0.0, 0.0, 0.0, 0.0, 0.0, 0.0, 0.0, 0.0, 0.0)",0.610704,-1.306942,-0.232358,"(0.0, 0.0, 0.0, 0.0, 0.0, 0.0, 0.0, 0.0, 0.0)",2.597,0.662,-8.103,"(0.0, 0.0, 0.0, 0.0, 0.0, 0.0, 0.0, 0.0, 0.0)",0,0,0,imu1_frame,0.0905,0.1995,0.4003,"(0.0, 0.0, 0.0, 0.0, 0.0, 0.0, 0.0, 0.0, 0.0)"
1677822697.0861263,0,1677822697,83791017,imu1_frame,0,0,0,,-0.7063725814740849,0.16698413824334196,0.6322775006982372,0.27088601999283113,"(0.0, 0.0, 0.0, 0.0, 0.0, 0.0, 0.0, 0.0, 0.0)",0.521253,-1.219067,-0.363091,"(0.0, 0.0, 0.0, 0.0, 0.0, 0.0, 0.0, 0.0, 0.0)",2.315,0.283,-8.827,"(0.0, 0.0, 0.0, 0.0, 0.0, 0.0, 0.0, 0.0, 0.0)",0,0,0,imu1_frame,0.1008,0.2098,0.3983,"(0.0, 0.0, 0.0, 0.0, 0.0, 0.0, 0.0, 0.0, 0.0)"
1677822697.1943758,0,1677822697,188269376,imu1_frame,0,0,0,,-0.09023675642748626,0.2006379847664576,0.7871888030696917,0.5761384513986261,"(0.0, 0.0, 0.0, 0.0, 0.0, 0.0, 0.0, 0.0, 0.0)",0.086034,-1.186855,-0.482113,"(0.0, 0.0, 0.0, 0.0, 0.0, 0.0, 0.0, 0.0, 0.0)",1.835,0.704,-7.616,"(0.0, 0.0, 0.0, 0.0, 0.0, 0.0, 0.0, 0.0, 0.0)",0,0,0,imu1_frame,0.1065,0.1991,0.4008,"(0.0, 0.0, 0.0, 0.0, 0.0, 0.0, 0.0, 0.0, 0.0)"
1677822697.2961442,0,1677822697,289525270,imu1_frame,0,0,0,,-0.6140168136580689,-0.37063908414040075,-0.4645798922709495,0.5193992159700189,"(0.0, 0.0, 0.0, 0.0, 0.0, 0.0, 0.0, 0.0, 0.0)",-0.417273,-1.438044,-0.562843,"(0.0, 0.0, 0.0, 0.0, 0.0, 0.0, 0.0, 0.0, 0.0)",1.986,1.214,-8.59,"(0.0, 0.0, 0.0, 0.0, 0.0, 0.0, 0.0, 0.0, 0.0)",0,0,0,imu1_frame,0.1149,0.2037,0.3977,"(0.0, 0.0, 0.0, 0.0, 0.0, 0.0, 0.0, 0.0, 0.0)"
1677822697.395269,0,1677822697,389367341,imu1_frame,0,0,0,,0.33173213119915923,0.15383541481316793,-0.436739719193942,-0.8219165869829621,"(0.0, 0.0, 0.0, 0.0, 0.0, 0.0, 0.0, 0.0, 0.0)",-0.467054,-1.577635,-0.528639,"(0.0, 0.0, 0.0, 0.0, 0.0, 0.0, 0.0, 0.0, 0.0)",1.739,3.361,-10.485,"(0.0, 0.0, 0.0, 0.0, 0.0, 0.0, 0.0, 0.0, 0.0)",0,0,0,imu1_frame,0.1272,0.2024,0.3927,"(0.0, 0.0, 0.0, 0.0, 0.0, 0.0, 0.0, 0.0, 0.0)"
1677822697.4864225,0,1677822697,483917236,imu1_frame,0,0,0,,0.36070032289829074,-0.41951158903676633,-0.7306493143983332,-0.4000710975491253,"(0.0, 0.0, 0.0, 0.0, 0.0, 0.0, 0.0, 0.0, 0.0)",-0.33899,-1.553576,-0.345646,"(0.0, 0.0, 0.0, 0.0, 0.0, 0.0, 0.0, 0.0, 0.0)",2.062,2.315,-11.861,"(0.0, 0.0, 0.0, 0.0, 0.0, 0.0, 0.0, 0.0, 0.0)",0,0,0,imu1_frame,0.1385,0.2002,0.3963,"(0.0, 0.0, 0.0, 0.0, 0.0, 0.0, 0.0, 0.0, 0.0)"
1677822697.5897164,0,1677822697,585928440,imu1_frame,0,0,0,,0.08587472620564221,0.5273861227299065,-0.2532044442417559,-0.8064594958007782,"(0.0, 0.0, 0.0, 0.0, 0.0, 0.0, 0.0, 0.0, 0.0)",-0.210711,-1.495553,-0.526239,"(0.0, 0.0, 0.0, 0.0, 0.0, 0.0, 0.0, 0.0, 0.0)",2.041,3.503,-13.236,"(0.0, 0.0, 0.0, 0.0, 0.0, 0.0, 0.0, 0.0, 0.0)",0,0,0,imu1_frame,0.1507,0.1883,0.3958,"(0.0, 0.0, 0.0, 0.0, 0.0, 0.0, 0.0, 0.0, 0.0)"
1677822697.689376,0,1677822697,685629606,imu1_frame,0,0,0,,0.2811367228850806,0.5626893842564903,0.7773842561208067,0.004064262047308587,"(0.0, 0.0, 0.0, 0.0, 0.0, 0.0, 0.0, 0.0, 0.0)",0.065599,-1.250078,-0.385155,"(0.0, 0.0, 0.0, 0.0, 0.0, 0.0, 0.0, 0.0, 0.0)",2.039,5.514,-15.229,"(0.0, 0.0, 0.0, 0.0, 0.0, 0.0, 0.0, 0.0, 0.0)",0,0,0,imu1_frame,0.1592,0.192,0.3916,"(0.0, 0.0, 0.0, 0.0, 0.0, 0.0, 0.0, 0.0, 0.0)"
1677822697.7867503,0,1677822697,784151077,imu1_frame,0,0,0,,-0.10311274676414034,0.6352109111576095,0.4928949966027493,0.5856017265386514,"(0.0, 0.0, 0.0, 0.0, 0.0, 0.0, 0.0, 0.0, 0.0)",0.290777,-0.967329,-0.02317,"(0.0, 0.0, 0.0, 0.0, 0.0, 0.0, 0.0, 0.0, 0.0)",1.714,4.262,-15.086,"(0.0, 0.0, 0.0, 0.0, 0.0, 0.0, 0.0, 0.0, 0.0)",0,0,0,imu1_frame,0.1676,0.1937,0.3952,"(0.0, 0.0, 0.0, 0.0, 0.0, 0.0, 0.0, 0.0, 0.0)"
1677822698.186369,0,1677822698,183886289,imu1_frame,0,0,0,,-0.36877014422397647,-0.509311386029025,-0.4720388716911309,0.6178914114978336,"(0.0, 0.0, 0.0, 0.0, 0.0, 0.0, 0.0, 0.0, 0.0)",0.104443,-0.670909,-0.07505,"(0.0, 0.0, 0.0, 0.0, 0.0, 0.0, 0.0, 0.0, 0.0)",2.582,0.808,-9.048,"(0.0, 0.0, 0.0, 0.0, 0.0, 0.0, 0.0, 0.0, 0.0)",0,0,0,imu1_frame,0.1159,0.2248,0.3921,"(0.0, 0.0, 0.0, 0.0, 0.0, 0.0, 0.0, 0.0, 0.0)"
1677822698.2860706,0,1677822698,283685207,imu1_frame,0,0,0,,-0.7791616039930925,-0.4623377694215094,-0.38774681474188577,0.1697156135621474,"(0.0, 0.0, 0.0, 0.0, 0.0, 0.0, 0.0, 0.0, 0.0)",0.090414,-0.785142,-0.06886,"(0.0, 0.0, 0.0, 0.0, 0.0, 0.0, 0.0, 0.0, 0.0)",2.751,0.483,-7.415,"(0.0, 0.0, 0.0, 0.0, 0.0, 0.0, 0.0, 0.0, 0.0)",0,0,0,imu1_frame,0.1216,0.2295,0.3922,"(0.0, 0.0, 0.0, 0.0, 0.0, 0.0, 0.0, 0.0, 0.0)"
1677822698.3860636,0,1677822698,383738279,imu1_frame,0,0,0,,-0.8704704570694561,-0.15398737057648892,0.08904583084347976,-0.4589552408259716,"(0.0, 0.0, 0.0, 0.0, 0.0, 0.0, 0.0, 0.0, 0.0)",-0.135474,-0.960354,-0.247067,"(0.0, 0.0, 0.0, 0.0, 0.0, 0.0, 0.0, 0.0, 0.0)",2.55,1.175,-9.691,"(0.0, 0.0, 0.0, 0.0, 0.0, 0.0, 0.0, 0.0, 0.0)",0,0,0,imu1_frame,0.1272,0.2294,0.3913,"(0.0, 0.0, 0.0, 0.0, 0.0, 0.0, 0.0, 0.0, 0.0)"
1677822698.486232,0,1677822698,483863353,imu1_frame,0,0,0,,-0.656341789656748,-0.2609694490833511,0.6173468024094342,-0.34640053023942735,"(0.0, 0.0, 0.0, 0.0, 0.0, 0.0, 0.0, 0.0, 0.0)",0.122187,-0.853076,-0.108546,"(0.0, 0.0, 0.0, 0.0, 0.0, 0.0, 0.0, 0.0, 0.0)",2.554,2.111,-10.256,"(0.0, 0.0, 0.0, 0.0, 0.0, 0.0, 0.0, 0.0, 0.0)",0,0,0,imu1_frame,0.1338,0.2234,0.3916,"(0.0, 0.0, 0.0, 0.0, 0.0, 0.0, 0.0, 0.0, 0.0)"
1677822698.5860488,0,1677822698,583646774,imu1_frame,0,0,0,,-0.6065924548641309,-0.46429188840686564,0.6149772240551072,0.19565697011598643,"(0.0, 0.0, 0.0, 0.0, 0.0, 0.0, 0.0, 0.0, 0.0)",0.19316,-0.788462,-0.086005,"(0.0, 0.0, 0.0, 0.0, 0.0, 0.0, 0.0, 0.0, 0.0)",2.549,1.183,-10.604,"(0.0, 0.0, 0.0, 0.0, 0.0, 0.0, 0.0, 0.0, 0.0)",0,0,0,imu1_frame,0.1404,0.2252,0.3874,"(0.0, 0.0, 0.0, 0.0, 0.0, 0.0, 0.0, 0.0, 0.0)"
1677822698.686001,0,1677822698,683454275,imu1_frame,0,0,0,,-0.6436817734168641,-0.5315419186633642,0.14048459901087382,0.532354243634203,"(0.0, 0.0, 0.0, 0.0, 0.0, 0.0, 0.0, 0.0, 0.0)",0.136686,-0.737997,-0.148315,"(0.0, 0.0, 0.0, 0.0, 0.0, 0.0, 0.0, 0.0, 0.0)",2.17,1.332,-10.898,"(0.0, 0.0, 0.0, 0.0, 0.0, 0.0, 0.0, 0.0, 0.0)",0,0,0,imu1_frame,0.1451,0.227,0.3919,"(0.0, 0.0, 0.0, 0.0, 0.0, 0.0, 0.0, 0.0, 0.0)"
1677822698.7870567,0,1677822698,784578561,imu1_frame,0,0,0,,-0.6657013155301447,-0.397651756287965,-0.46523519649517203,0.4269321388284449,"(0.0, 0.0, 0.0, 0.0, 0.0, 0.0, 0.0, 0.0, 0.0)",-0.008249,-0.653333,-0.099805,"(0.0, 0.0, 0.0, 0.0, 0.0, 0.0, 0.0, 0.0, 0.0)",2.02,1.873,-10.196,"(0.0, 0.0, 0.0, 0.0, 0.0, 0.0, 0.0, 0.0, 0.0)",0,0,0,imu1_frame,0.1479,0.2307,0.3854,"(0.0, 0.0, 0.0, 0.0, 0.0, 0.0, 0.0, 0.0, 0.0)"
1677822698.9007335,0,1677822698,894500255,imu1_frame,0,0,0,,-0.4779719959263738,-0.08369971261226689,-0.874234143935524,0.015867917194896282,"(0.0, 0.0, 0.0, 0.0, 0.0, 0.0, 0.0, 0.0, 0.0)",-0.142642,-0.646643,-0.135442,"(0.0, 0.0, 0.0, 0.0, 0.0, 0.0, 0.0, 0.0, 0.0)",1.817,1.642,-10.027,"(0.0, 0.0, 0.0, 0.0, 0.0, 0.0, 0.0, 0.0, 0.0)",0,0,0,imu1_frame,0.1554,0.2248,0.389,"(0.0, 0.0, 0.0, 0.0, 0.0, 0.0, 0.0, 0.0, 0.0)"
1677822698.9910839,0,1677822698,986998796,imu1_frame,0,0,0,,-0.03215114344308794,0.12316004178110458,-0.9378435883057367,-0.32287352315976386,"(0.0, 0.0, 0.0, 0.0, 0.0, 0.0, 0.0, 0.0, 0.0)",0.0112,-0.6614,-0.072579,"(0.0, 0.0, 0.0, 0.0, 0.0, 0.0, 0.0, 0.0, 0.0)",1.718,1.848,-9.915,"(0.0, 0.0, 0.0, 0.0, 0.0, 0.0, 0.0, 0.0, 0.0)",0,0,0,imu1_frame,0.1592,0.2295,0.3814,"(0.0, 0.0, 0.0, 0.0, 0.0, 0.0, 0.0, 0.0, 0.0)"
1677822699.090278,0,1677822699,86068153,imu1_frame,0,0,0,,0.43190546662876933,0.0057969431274932925,-0.7995271156925485,-0.41734931965790456,"(0.0, 0.0, 0.0, 0.0, 0.0, 0.0, 0.0, 0.0, 0.0)",-0.021603,-0.673443,-0.113197,"(0.0, 0.0, 0.0, 0.0, 0.0, 0.0, 0.0, 0.0, 0.0)",1.617,1.802,-10.626,"(0.0, 0.0, 0.0, 0.0, 0.0, 0.0, 0.0, 0.0, 0.0)",0,0,0,imu1_frame,0.163,0.2255,0.3892,"(0.0, 0.0, 0.0, 0.0, 0.0, 0.0, 0.0, 0.0, 0.0)"
1677822699.1894019,0,1677822699,186921119,imu1_frame,0,0,0,,0.645309044844298,-0.29295396655647477,-0.64393894091701,-0.28826524329451697,"(0.0, 0.0, 0.0, 0.0, 0.0, 0.0, 0.0, 0.0, 0.0)",0.041428,-0.601352,-0.083276,"(0.0, 0.0, 0.0, 0.0, 0.0, 0.0, 0.0, 0.0, 0.0)",1.854,2.763,-11.718,"(0.0, 0.0, 0.0, 0.0, 0.0, 0.0, 0.0, 0.0, 0.0)",0,0,0,imu1_frame,0.1695,0.2234,0.3829,"(0.0, 0.0, 0.0, 0.0, 0.0, 0.0, 0.0, 0.0, 0.0)"
1677822699.2940443,0,1677822699,288125991,imu1_frame,0,0,0,,0.5886671188789401,-0.5987445757416766,-0.5338983550172094,-0.0996418721251538,"(0.0, 0.0, 0.0, 0.0, 0.0, 0.0, 0.0, 0.0, 0.0)",0.156946,-0.503332,0.002959,"(0.0, 0.0, 0.0, 0.0, 0.0, 0.0, 0.0, 0.0, 0.0)",1.595,2.624,-11.733,"(0.0, 0.0, 0.0, 0.0, 0.0, 0.0, 0.0, 0.0, 0.0)",0,0,0,imu1_frame,0.1705,0.2253,0.3851,"(0.0, 0.0, 0.0, 0.0, 0.0, 0.0, 0.0, 0.0, 0.0)"
1677822699.3872566,0,1677822699,384857892,imu1_frame,0,0,0,,0.48696656047047165,-0.8066354612600548,-0.3239334124561045,0.0852639778328491,"(0.0, 0.0, 0.0, 0.0, 0.0, 0.0, 0.0, 0.0, 0.0)",0.256889,-0.414535,0.125297,"(0.0, 0.0, 0.0, 0.0, 0.0, 0.0, 0.0, 0.0, 0.0)",1.6,2.56,-12.392,"(0.0, 0.0, 0.0, 0.0, 0.0, 0.0, 0.0, 0.0, 0.0)",0,0,0,imu1_frame,0.1752,0.231,0.383,"(0.0, 0.0, 0.0, 0.0, 0.0, 0.0, 0.0, 0.0, 0.0)"
1677822699.4966555,0,1677822699,489840984,imu1_frame,0,0,0,,0.4919745046018384,-0.8416101475929794,0.0233199205669624,0.22160692136088528,"(0.0, 0.0, 0.0, 0.0, 0.0, 0.0, 0.0, 0.0, 0.0)",0.301782,-0.348479,0.128137,"(0.0, 0.0, 0.0, 0.0, 0.0, 0.0, 0.0, 0.0, 0.0)",1.422,1.587,-12.682,"(0.0, 0.0, 0.0, 0.0, 0.0, 0.0, 0.0, 0.0, 0.0)",0,0,0,imu1_frame,0.178,0.2319,0.3842,"(0.0, 0.0, 0.0, 0.0, 0.0, 0.0, 0.0, 0.0, 0.0)"
1677822699.5905938,0,1677822699,588137388,imu1_frame,0,0,0,,0.5382565778023004,-0.7338478045816984,0.30389778027464875,0.2817683362397537,"(0.0, 0.0, 0.0, 0.0, 0.0, 0.0, 0.0, 0.0, 0.0)",0.206854,-0.231627,0.112255,"(0.0, 0.0, 0.0, 0.0, 0.0, 0.0, 0.0, 0.0, 0.0)",1.314,1.575,-12.519,"(0.0, 0.0, 0.0, 0.0, 0.0, 0.0, 0.0, 0.0, 0.0)",0,0,0,imu1_frame,0.179,0.2319,0.381,"(0.0, 0.0, 0.0, 0.0, 0.0, 0.0, 0.0, 0.0, 0.0)"
1677822699.6899376,0,1677822699,687601089,imu1_frame,0,0,0,,0.5836275482260354,-0.6073240514601959,0.45122954220311934,0.29483602512719437,"(0.0, 0.0, 0.0, 0.0, 0.0, 0.0, 0.0, 0.0, 0.0)",0.123037,-0.118277,0.085924,"(0.0, 0.0, 0.0, 0.0, 0.0, 0.0, 0.0, 0.0, 0.0)",1.176,1.827,-12.217,"(0.0, 0.0, 0.0, 0.0, 0.0, 0.0, 0.0, 0.0, 0.0)",0,0,0,imu1_frame,0.1809,0.2318,0.381,"(0.0, 0.0, 0.0, 0.0, 0.0, 0.0, 0.0, 0.0, 0.0)"
1677822699.7866745,0,1677822699,783894300,imu1_frame,0,0,0,,0.6510318212086923,-0.465563706937187,0.5640910422385372,0.2030007355229018,"(0.0, 0.0, 0.0, 0.0, 0.0, 0.0, 0.0, 0.0, 0.0)",0.163189,-0.000672,0.096194,"(0.0, 0.0, 0.0, 0.0, 0.0, 0.0, 0.0, 0.0, 0.0)",0.978,2.157,-12.096,"(0.0, 0.0, 0.0, 0.0, 0.0, 0.0, 0.0, 0.0, 0.0)",0,0,0,imu1_frame,0.1827,0.2327,0.38,"(0.0, 0.0, 0.0, 0.0, 0.0, 0.0, 0.0, 0.0, 0.0)"
1677822699.9025412,0,1677822699,893188238,imu1_frame,0,0,0,,0.7297887459834823,-0.23998451735975115,0.631066665053186,-0.10756710427502325,"(0.0, 0.0, 0.0, 0.0, 0.0, 0.0, 0.0, 0.0, 0.0)",0.179005,0.159817,0.208442,"(0.0, 0.0, 0.0, 0.0, 0.0, 0.0, 0.0, 0.0, 0.0)",0.821,2.227,-10.589,"(0.0, 0.0, 0.0, 0.0, 0.0, 0.0, 0.0, 0.0, 0.0)",0,0,0,imu1_frame,0.1827,0.2327,0.38,"(0.0, 0.0, 0.0, 0.0, 0.0, 0.0, 0.0, 0.0, 0.0)"
1677822699.993095,0,1677822699,988412380,imu1_frame,0,0,0,,0.6867098725904484,0.003142545186139045,0.5496686328739562,-0.4756932512986066,"(0.0, 0.0, 0.0, 0.0, 0.0, 0.0, 0.0, 0.0, 0.0)",0.084832,0.212301,0.217743,"(0.0, 0.0, 0.0, 0.0, 0.0, 0.0, 0.0, 0.0, 0.0)",0.794,2.304,-9.496,"(0.0, 0.0, 0.0, 0.0, 0.0, 0.0, 0.0, 0.0, 0.0)",0,0,0,imu1_frame,0.1809,0.2337,0.3788,"(0.0, 0.0, 0.0, 0.0, 0.0, 0.0, 0.0, 0.0, 0.0)"
1677822700.0870972,0,1677822700,84557533,imu1_frame,0,0,0,,0.5875730116323288,0.14996626480334385,0.3586366998320689,-0.7096814728847098,"(0.0, 0.0, 0.0, 0.0, 0.0, 0.0, 0.0, 0.0, 0.0)",-0.076653,0.146695,0.223945,"(0.0, 0.0, 0.0, 0.0, 0.0, 0.0, 0.0, 0.0, 0.0)",0.901,3.276,-8.141,"(0.0, 0.0, 0.0, 0.0, 0.0, 0.0, 0.0, 0.0, 0.0)",0,0,0,imu1_frame,0.179,0.2347,0.382,"(0.0, 0.0, 0.0, 0.0, 0.0, 0.0, 0.0, 0.0, 0.0)"
1677822700.1984026,0,1677822700,192347049,imu1_frame,0,0,0,,0.433237521662017,0.3733763402566977,0.149585474887135,-0.8065479180206582,"(0.0, 0.0, 0.0, 0.0, 0.0, 0.0, 0.0, 0.0, 0.0)",-0.091232,-0.046734,0.387669,"(0.0, 0.0, 0.0, 0.0, 0.0, 0.0, 0.0, 0.0, 0.0)",0.895,3.604,-8.906,"(0.0, 0.0, 0.0, 0.0, 0.0, 0.0, 0.0, 0.0, 0.0)",0,0,0,imu1_frame,0.1818,0.2328,0.381,"(0.0, 0.0, 0.0, 0.0, 0.0, 0.0, 0.0, 0.0, 0.0)"
1677822700.2925062,0,1677822700,287535905,imu1_frame,0,0,0,,0.014508593860026203,0.5591878719367622,-0.21942022489742802,-0.7993454756793223,"(0.0, 0.0, 0.0, 0.0, 0.0, 0.0, 0.0, 0.0, 0.0)",-0.036667,-0.053228,0.51595,"(0.0, 0.0, 0.0, 0.0, 0.0, 0.0, 0.0, 0.0, 0.0)",0.754,2.909,-8.462,"(0.0, 0.0, 0.0, 0.0, 0.0, 0.0, 0.0, 0.0, 0.0)",0,0,0,imu1_frame,0.1837,0.2327,0.3822,"(0.0, 0.0, 0.0, 0.0, 0.0, 0.0, 0.0, 0.0, 0.0)"
1677822700.3887277,0,1677822700,385314226,imu1_frame,0,0,0,,-0.4894871450469923,0.4853388129695746,-0.5194516785652987,-0.5049935891620037,"(0.0, 0.0, 0.0, 0.0, 0.0, 0.0, 0.0, 0.0, 0.0)",-0.054529,-0.133138,0.577741,"(0.0, 0.0, 0.0, 0.0, 0.0, 0.0, 0.0, 0.0, 0.0)",0.873,2.846,-8.993,"(0.0, 0.0, 0.0, 0.0, 0.0, 0.0, 0.0, 0.0, 0.0)",0,0,0,imu1_frame,0.1846,0.224,0.3812,"(0.0, 0.0, 0.0, 0.0, 0.0, 0.0, 0.0, 0.0, 0.0)"
1677822700.4952328,0,1677822700,489279985,imu1_frame,0,0,0,,-0.8238475683697326,0.0770996255297421,-0.5609220699903772,0.026405742408853933,"(0.0, 0.0, 0.0, 0.0, 0.0, 0.0, 0.0, 0.0, 0.0)",0.022615,-0.153684,0.63125,"(0.0, 0.0, 0.0, 0.0, 0.0, 0.0, 0.0, 0.0, 0.0)",0.639,3.036,-8.3,"(0.0, 0.0, 0.0, 0.0, 0.0, 0.0, 0.0, 0.0, 0.0)",0,0,0,imu1_frame,0.1884,0.2249,0.3791,"(0.0, 0.0, 0.0, 0.0, 0.0, 0.0, 0.0, 0.0, 0.0)"
1677822700.5953407,0,1677822700,589370012,imu1_frame,0,0,0,,-0.7262053237199297,-0.39464287566998724,-0.05823301093837244,0.5599033353363833,"(0.0, 0.0, 0.0, 0.0, 0.0, 0.0, 0.0, 0.0, 0.0)",0.181331,-0.24888,0.770218,"(0.0, 0.0, 0.0, 0.0, 0.0, 0.0, 0.0, 0.0, 0.0)",0.657,3.121,-8.338,"(0.0, 0.0, 0.0, 0.0, 0.0, 0.0, 0.0, 0.0, 0.0)",0,0,0,imu1_frame,0.1884,0.2287,0.378,"(0.0, 0.0, 0.0, 0.0, 0.0, 0.0, 0.0, 0.0, 0.0)"
1677822700.6994014,0,1677822700,691368341,imu1_frame,0,0,0,,-0.35312010510284436,-0.31171830997229805,0.72951533026303,0.49592869397867334,"(0.0, 0.0, 0.0, 0.0, 0.0, 0.0, 0.0, 0.0, 0.0)",0.314233,-0.217534,0.862693,"(0.0, 0.0, 0.0, 0.0, 0.0, 0.0, 0.0, 0.0, 0.0)",0.69,2.316,-10.161,"(0.0, 0.0, 0.0, 0.0, 0.0, 0.0, 0.0, 0.0, 0.0)",0,0,0,imu1_frame,0.194,0.2247,0.3782,"(0.0, 0.0, 0.0, 0.0, 0.0, 0.0, 0.0, 0.0, 0.0)"
1677822700.7874117,0,1677822700,784352540,imu1_frame,0,0,0,,-0.40285798102681203,0.04239246364244219,0.9136924079711768,0.032779715757732295,"(0.0, 0.0, 0.0, 0.0, 0.0, 0.0, 0.0, 0.0, 0.0)",0.109964,-0.143314,0.803817,"(0.0, 0.0, 0.0, 0.0, 0.0, 0.0, 0.0, 0.0, 0.0)",0.75,2.248,-8.947,"(0.0, 0.0, 0.0, 0.0, 0.0, 0.0, 0.0, 0.0, 0.0)",0,0,0,imu1_frame,0.1987,0.2246,0.3784,"(0.0, 0.0, 0.0, 0.0, 0.0, 0.0, 0.0, 0.0, 0.0)"
1677822700.885811,0,1677822700,883426666,imu1_frame,0,0,0,,-0.6828937914431713,-0.1573105210566853,0.6926963842799675,-0.17053207551280222,"(0.0, 0.0, 0.0, 0.0, 0.0, 0.0, 0.0, 0.0, 0.0)",-0.029196,-0.211838,0.925025,"(0.0, 0.0, 0.0, 0.0, 0.0, 0.0, 0.0, 0.0, 0.0)",0.799,3.872,-9.973,"(0.0, 0.0, 0.0, 0.0, 0.0, 0.0, 0.0, 0.0, 0.0)",0,0,0,imu1_frame,0.2006,0.2265,0.3784,"(0.0, 0.0, 0.0, 0.0, 0.0, 0.0, 0.0, 0.0, 0.0)"
1677822700.9940083,0,1677822700,991530895,imu1_frame,0,0,0,,-0.41060446754490987,-0.5854458424361318,0.6851460340743272,-0.1386796625270986,"(0.0, 0.0, 0.0, 0.0, 0.0, 0.0, 0.0, 0.0, 0.0)",0.020683,-0.127063,1.124967,"(0.0, 0.0, 0.0, 0.0, 0.0, 0.0, 0.0, 0.0, 0.0)",0.479,3.359,-9.903,"(0.0, 0.0, 0.0, 0.0, 0.0, 0.0, 0.0, 0.0, 0.0)",0,0,0,imu1_frame,0.2053,0.2158,0.3787,"(0.0, 0.0, 0.0, 0.0, 0.0, 0.0, 0.0, 0.0, 0.0)"
1677822701.0867274,0,1677822701,84382295,imu1_frame,0,0,0,,0.24640126619702446,-0.24751866020036792,0.7570764131797794,-0.5521378754223966,"(0.0, 0.0, 0.0, 0.0, 0.0, 0.0, 0.0, 0.0, 0.0)",-0.031979,-0.173927,1.243666,"(0.0, 0.0, 0.0, 0.0, 0.0, 0.0, 0.0, 0.0, 0.0)",0.102,2.28,-10.166,"(0.0, 0.0, 0.0, 0.0, 0.0, 0.0, 0.0, 0.0, 0.0)",0,0,0,imu1_frame,0.21,0.2195,0.3766,"(0.0, 0.0, 0.0, 0.0, 0.0, 0.0, 0.0, 0.0, 0.0)"
1677822701.2003567,0,1677822701,188683032,imu1_frame,0,0,0,,-0.03244882100372862,0.48810473603042825,0.006020247507254446,-0.8721608781068348,"(0.0, 0.0, 0.0, 0.0, 0.0, 0.0, 0.0, 0.0, 0.0)",-0.067115,-0.086718,1.21782,"(0.0, 0.0, 0.0, 0.0, 0.0, 0.0, 0.0, 0.0, 0.0)",0.007,1.759,-10.063,"(0.0, 0.0, 0.0, 0.0, 0.0, 0.0, 0.0, 0.0, 0.0)",0,0,0,imu1_frame,0.2128,0.2146,0.3757,"(0.0, 0.0, 0.0, 0.0, 0.0, 0.0, 0.0, 0.0, 0.0)"
1677822701.2969747,0,1677822701,290053129,imu1_frame,0,0,0,,-0.7007016847528,0.3318969541021053,-0.6160912330644316,-0.1388997961966858,"(0.0, 0.0, 0.0, 0.0, 0.0, 0.0, 0.0, 0.0, 0.0)",-0.130939,-0.074593,1.192479,"(0.0, 0.0, 0.0, 0.0, 0.0, 0.0, 0.0, 0.0, 0.0)",0.212,1.912,-9.84,"(0.0, 0.0, 0.0, 0.0, 0.0, 0.0, 0.0, 0.0, 0.0)",0,0,0,imu1_frame,0.2147,0.2117,0.3779,"(0.0, 0.0, 0.0, 0.0, 0.0, 0.0, 0.0, 0.0, 0.0)"
1677822701.391166,0,1677822701,386600732,imu1_frame,0,0,0,,-0.7168968190183155,-0.22591693972468585,-0.0751345442484229,0.6552673404706169,"(0.0, 0.0, 0.0, 0.0, 0.0, 0.0, 0.0, 0.0, 0.0)",-0.207793,-0.10092,1.260387,"(0.0, 0.0, 0.0, 0.0, 0.0, 0.0, 0.0, 0.0, 0.0)",0.22,2.338,-8.634,"(0.0, 0.0, 0.0, 0.0, 0.0, 0.0, 0.0, 0.0, 0.0)",0,0,0,imu1_frame,0.2175,0.1991,0.3771,"(0.0, 0.0, 0.0, 0.0, 0.0, 0.0, 0.0, 0.0, 0.0)"
1677822701.4923055,0,1677822701,487260818,imu1_frame,0,0,0,,-0.5456405840559224,-0.31098835226157584,0.7373061672383311,0.24888192690724692,"(0.0, 0.0, 0.0, 0.0, 0.0, 0.0, 0.0, 0.0, 0.0)",-0.259099,-0.240486,1.323506,"(0.0, 0.0, 0.0, 0.0, 0.0, 0.0, 0.0, 0.0, 0.0)",0.021,2.169,-10.117,"(0.0, 0.0, 0.0, 0.0, 0.0, 0.0, 0.0, 0.0, 0.0)",0,0,0,imu1_frame,0.2231,0.1961,0.3762,"(0.0, 0.0, 0.0, 0.0, 0.0, 0.0, 0.0, 0.0, 0.0)"
1677822701.5906994,0,1677822701,587965011,imu1_frame,0,0,0,,-0.6589498692817494,-0.4418225777374871,0.4083584306410446,-0.45146569271579307,"(0.0, 0.0, 0.0, 0.0, 0.0, 0.0, 0.0, 0.0, 0.0)",-0.192098,-0.244412,1.470406,"(0.0, 0.0, 0.0, 0.0, 0.0, 0.0, 0.0, 0.0, 0.0)",-0.166,1.322,-9.526,"(0.0, 0.0, 0.0, 0.0, 0.0, 0.0, 0.0, 0.0, 0.0)",0,0,0,imu1_frame,0.2269,0.1893,0.3786,"(0.0, 0.0, 0.0, 0.0, 0.0, 0.0, 0.0, 0.0, 0.0)"
1677822701.6892126,0,1677822701,685596227,imu1_frame,0,0,0,,-0.31255899304605733,-0.9385903883251776,-0.14422607131948628,0.02353293779733641,"(0.0, 0.0, 0.0, 0.0, 0.0, 0.0, 0.0, 0.0, 0.0)",-0.246157,-0.287947,1.45538,"(0.0, 0.0, 0.0, 0.0, 0.0, 0.0, 0.0, 0.0, 0.0)",-0.267,0.147,-10.599,"(0.0, 0.0, 0.0, 0.0, 0.0, 0.0, 0.0, 0.0, 0.0)",0,0,0,imu1_frame,0.2316,0.1805,0.3766,"(0.0, 0.0, 0.0, 0.0, 0.0, 0.0, 0.0, 0.0, 0.0)"
1677822701.7865958,0,1677822701,784256219,imu1_frame,0,0,0,,0.48615402154743315,-0.5867680526364046,0.43115651259730164,0.4831786226474346,"(0.0, 0.0, 0.0, 0.0, 0.0, 0.0, 0.0, 0.0, 0.0)",-0.138073,-0.181346,1.450756,"(0.0, 0.0, 0.0, 0.0, 0.0, 0.0, 0.0, 0.0, 0.0)",-0.268,0.07,-10.817,"(0.0, 0.0, 0.0, 0.0, 0.0, 0.0, 0.0, 0.0, 0.0)",0,0,0,imu1_frame,0.2344,0.1814,0.3778,"(0.0, 0.0, 0.0, 0.0, 0.0, 0.0, 0.0, 0.0, 0.0)"
1677822701.892253,0,1677822701,889789342,imu1_frame,0,0,0,,0.26398706355519524,0.30180832205301944,0.9157928880683807,-0.023365640980306933,"(0.0, 0.0, 0.0, 0.0, 0.0, 0.0, 0.0, 0.0, 0.0)",-0.23731,-0.180864,1.369078,"(0.0, 0.0, 0.0, 0.0, 0.0, 0.0, 0.0, 0.0, 0.0)",-0.19,-1.031,-10.187,"(0.0, 0.0, 0.0, 0.0, 0.0, 0.0, 0.0, 0.0, 0.0)",0,0,0,imu1_frame,0.2363,0.164,0.3758,"(0.0, 0.0, 0.0, 0.0, 0.0, 0.0, 0.0, 0.0, 0.0)"
1677822702.2858822,0,1677822702,283318519,imu1_frame,0,0,0,,0.3368752290423735,-0.2017038178679414,-0.5126042235074663,-0.7635886064874544,"(0.0, 0.0, 0.0, 0.0, 0.0, 0.0, 0.0, 0.0, 0.0)",0.016027,-0.177771,0.81254,"(0.0, 0.0, 0.0, 0.0, 0.0, 0.0, 0.0, 0.0, 0.0)",0.397,3.203,-10.002,"(0.0, 0.0, 0.0, 0.0, 0.0, 0.0, 0.0, 0.0, 0.0)",0,0,0,imu1_frame,0.2053,0.2042,0.3832,"(0.0, 0.0, 0.0, 0.0, 0.0, 0.0, 0.0, 0.0, 0.0)"
1677822702.386171,0,1677822702,383706808,imu1_frame,0,0,0,,-0.010386261938388312,-0.1162422624003028,-0.9055744216904783,-0.40781715115350714,"(0.0, 0.0, 0.0, 0.0, 0.0, 0.0, 0.0, 0.0, 0.0)",-0.041618,-0.15646,0.899374,"(0.0, 0.0, 0.0, 0.0, 0.0, 0.0, 0.0, 0.0, 0.0)",0.412,3.097,-9.643,"(0.0, 0.0, 0.0, 0.0, 0.0, 0.0, 0.0, 0.0, 0.0)",0,0,0,imu1_frame,0.2081,0.1994,0.38,"(0.0, 0.0, 0.0, 0.0, 0.0, 0.0, 0.0, 0.0, 0.0)"
1677822702.4859414,0,1677822702,483525276,imu1_frame,0,0,0,,-0.15517255772794403,-0.44042678462764784,-0.8185072254524538,0.33465153009189363,"(0.0, 0.0, 0.0, 0.0, 0.0, 0.0, 0.0, 0.0, 0.0)",-0.07065,-0.191148,0.909553,"(0.0, 0.0, 0.0, 0.0, 0.0, 0.0, 0.0, 0.0, 0.0)",0.328,2.566,-9.344,"(0.0, 0.0, 0.0, 0.0, 0.0, 0.0, 0.0, 0.0, 0.0)",0,0,0,imu1_frame,0.2128,0.1973,0.378,"(0.0, 0.0, 0.0, 0.0, 0.0, 0.0, 0.0, 0.0, 0.0)"
1677822702.586073,0,1677822702,583699464,imu1_frame,0,0,0,,0.15325934724430584,-0.6834826533641924,0.001787326128032174,0.7136945008179651,"(0.0, 0.0, 0.0, 0.0, 0.0, 0.0, 0.0, 0.0, 0.0)",-0.008591,-0.174455,1.010548,"(0.0, 0.0, 0.0, 0.0, 0.0, 0.0, 0.0, 0.0, 0.0)",0.147,3.095,-9.956,"(0.0, 0.0, 0.0, 0.0, 0.0, 0.0, 0.0, 0.0, 0.0)",0,0,0,imu1_frame,0.2156,0.2021,0.3824,"(0.0, 0.0, 0.0, 0.0, 0.0, 0.0, 0.0, 0.0, 0.0)"
1677822702.6864443,0,1677822702,683942794,imu1_frame,0,0,0,,0.4984668385111881,-0.31824591309197053,0.7996830509695005,0.10371773087100554,"(0.0, 0.0, 0.0, 0.0, 0.0, 0.0, 0.0, 0.0, 0.0)",-0.073673,-0.136159,1.147578,"(0.0, 0.0, 0.0, 0.0, 0.0, 0.0, 0.0, 0.0, 0.0)",-0.228,3.093,-9.267,"(0.0, 0.0, 0.0, 0.0, 0.0, 0.0, 0.0, 0.0, 0.0)",0,0,0,imu1_frame,0.2184,0.1943,0.3761,"(0.0, 0.0, 0.0, 0.0, 0.0, 0.0, 0.0, 0.0, 0.0)"
1677822702.7860606,0,1677822702,783621311,imu1_frame,0,0,0,,0.15241767361148523,0.03807991892903169,0.5479106546139174,-0.8216524125844029,"(0.0, 0.0, 0.0, 0.0, 0.0, 0.0, 0.0, 0.0, 0.0)",-0.082157,-0.14417,1.140613,"(0.0, 0.0, 0.0, 0.0, 0.0, 0.0, 0.0, 0.0, 0.0)",0.077,1.738,-9.664,"(0.0, 0.0, 0.0, 0.0, 0.0, 0.0, 0.0, 0.0, 0.0)",0,0,0,imu1_frame,0.2194,0.1933,0.3794,"(0.0, 0.0, 0.0, 0.0, 0.0, 0.0, 0.0, 0.0, 0.0)"
1677822702.8877602,0,1677822702,884801387,imu1_frame,0,0,0,,-0.1519458998205233,-0.32288008776508853,-0.13520126914550828,-0.9243275984595418,"(0.0, 0.0, 0.0, 0.0, 0.0, 0.0, 0.0, 0.0, 0.0)",-0.010161,-0.170734,1.130168,"(0.0, 0.0, 0.0, 0.0, 0.0, 0.0, 0.0, 0.0, 0.0)",0.01,2.411,-9.967,"(0.0, 0.0, 0.0, 0.0, 0.0, 0.0, 0.0, 0.0, 0.0)",0,0,0,imu1_frame,0.2241,0.1807,0.3786,"(0.0, 0.0, 0.0, 0.0, 0.0, 0.0, 0.0, 0.0, 0.0)"
1677822702.9969256,0,1677822702,988837957,imu1_frame,0,0,0,,0.2481831014365157,-0.6447139807732811,-0.333948127661154,-0.641270363566282,"(0.0, 0.0, 0.0, 0.0, 0.0, 0.0, 0.0, 0.0, 0.0)",-0.0214,-0.183016,1.18323,"(0.0, 0.0, 0.0, 0.0, 0.0, 0.0, 0.0, 0.0, 0.0)",-0.003,2.452,-9.568,"(0.0, 0.0, 0.0, 0.0, 0.0, 0.0, 0.0, 0.0, 0.0)",0,0,0,imu1_frame,0.2278,0.1796,0.3831,"(0.0, 0.0, 0.0, 0.0, 0.0, 0.0, 0.0, 0.0, 0.0)"
1677822703.0868478,0,1677822703,84463834,imu1_frame,0,0,0,,0.630713722740591,-0.12977913304004388,-0.4335689234142406,-0.630377319724858,"(0.0, 0.0, 0.0, 0.0, 0.0, 0.0, 0.0, 0.0, 0.0)",-0.142634,-0.135401,1.237832,"(0.0, 0.0, 0.0, 0.0, 0.0, 0.0, 0.0, 0.0, 0.0)",-0.063,2.164,-9.515,"(0.0, 0.0, 0.0, 0.0, 0.0, 0.0, 0.0, 0.0, 0.0)",0,0,0,imu1_frame,0.2278,0.1671,0.381,"(0.0, 0.0, 0.0, 0.0, 0.0, 0.0, 0.0, 0.0, 0.0)"
1677822703.1859138,0,1677822703,183685541,imu1_frame,0,0,0,,0.09352221877613844,0.40183281570640556,-0.821844402299038,-0.3928813576976987,"(0.0, 0.0, 0.0, 0.0, 0.0, 0.0, 0.0, 0.0, 0.0)",-0.167036,-0.162195,1.280791,"(0.0, 0.0, 0.0, 0.0, 0.0, 0.0, 0.0, 0.0, 0.0)",-0.011,1.781,-9.561,"(0.0, 0.0, 0.0, 0.0, 0.0, 0.0, 0.0, 0.0, 0.0)",0,0,0,imu1_frame,0.2316,0.1709,0.3822,"(0.0, 0.0, 0.0, 0.0, 0.0, 0.0, 0.0, 0.0, 0.0)"
1677822703.2938614,0,1677822703,288171768,imu1_frame,0,0,0,,-0.5425839378072834,-0.10165394190092666,-0.7864792015052592,0.27698305386646843,"(0.0, 0.0, 0.0, 0.0, 0.0, 0.0, 0.0, 0.0, 0.0)",-0.147254,-0.190205,1.286752,"(0.0, 0.0, 0.0, 0.0, 0.0, 0.0, 0.0, 0.0, 0.0)",-0.059,2.27,-9.254,"(0.0, 0.0, 0.0, 0.0, 0.0, 0.0, 0.0, 0.0, 0.0)",0,0,0,imu1_frame,0.2334,0.1602,0.3802,"(0.0, 0.0, 0.0, 0.0, 0.0, 0.0, 0.0, 0.0, 0.0)"
1677822703.386125,0,1677822703,383759260,imu1_frame,0,0,0,,-0.17279354370820285,-0.8792264452302092,-0.033435571719877114,0.4427022834867425,"(0.0, 0.0, 0.0, 0.0, 0.0, 0.0, 0.0, 0.0, 0.0)",-0.130305,-0.190938,1.391065,"(0.0, 0.0, 0.0, 0.0, 0.0, 0.0, 0.0, 0.0, 0.0)",-0.057,1.812,-9.483,"(0.0, 0.0, 0.0, 0.0, 0.0, 0.0, 0.0, 0.0, 0.0)",0,0,0,imu1_frame,0.2372,0.1544,0.3836,"(0.0, 0.0, 0.0, 0.0, 0.0, 0.0, 0.0, 0.0, 0.0)"
1677822703.4974682,0,1677822703,491517066,imu1_frame,0,0,0,,0.5408023556714091,-0.7819966164968005,0.1543070407495577,-0.2687069799296714,"(0.0, 0.0, 0.0, 0.0, 0.0, 0.0, 0.0, 0.0, 0.0)",-0.203825,-0.262445,1.338295,"(0.0, 0.0, 0.0, 0.0, 0.0, 0.0, 0.0, 0.0, 0.0)",-0.239,1.095,-9.62,"(0.0, 0.0, 0.0, 0.0, 0.0, 0.0, 0.0, 0.0, 0.0)",0,0,0,imu1_frame,0.2372,0.1486,0.3815,"(0.0, 0.0, 0.0, 0.0, 0.0, 0.0, 0.0, 0.0, 0.0)"
1677822703.5962272,0,1677822703,593685388,imu1_frame,0,0,0,,0.6523401704861319,-0.3318502677766332,-0.5809694711770635,-0.35609293071745235,"(0.0, 0.0, 0.0, 0.0, 0.0, 0.0, 0.0, 0.0, 0.0)",-0.253187,-0.276755,1.372919,"(0.0, 0.0, 0.0, 0.0, 0.0, 0.0, 0.0, 0.0, 0.0)",-0.091,1.498,-10.242,"(0.0, 0.0, 0.0, 0.0, 0.0, 0.0, 0.0, 0.0, 0.0)",0,0,0,imu1_frame,0.2419,0.1427,0.3806,"(0.0, 0.0, 0.0, 0.0, 0.0, 0.0, 0.0, 0.0, 0.0)"
1677822703.6943867,0,1677822703,688387155,imu1_frame,0,0,0,,0.4781446112742661,-0.207326617361879,-0.6881988955300031,0.5047530927433194,"(0.0, 0.0, 0.0, 0.0, 0.0, 0.0, 0.0, 0.0, 0.0)",-0.27488,-0.256317,1.395965,"(0.0, 0.0, 0.0, 0.0, 0.0, 0.0, 0.0, 0.0, 0.0)",-0.093,1.188,-10.616,"(0.0, 0.0, 0.0, 0.0, 0.0, 0.0, 0.0, 0.0, 0.0)",0,0,0,imu1_frame,0.2437,0.1311,0.3786,"(0.0, 0.0, 0.0, 0.0, 0.0, 0.0, 0.0, 0.0, 0.0)"
1677822703.7873888,0,1677822703,784633636,imu1_frame,0,0,0,,0.5408079357199748,-0.2424864431287913,0.22066655230976642,0.7746182119294435,"(0.0, 0.0, 0.0, 0.0, 0.0, 0.0, 0.0, 0.0, 0.0)",-0.277523,-0.205073,1.36038,"(0.0, 0.0, 0.0, 0.0, 0.0, 0.0, 0.0, 0.0, 0.0)",-0.047,1.621,-10.43,"(0.0, 0.0, 0.0, 0.0, 0.0, 0.0, 0.0, 0.0, 0.0)",0,0,0,imu1_frame,0.2466,0.1243,0.3809,"(0.0, 0.0, 0.0, 0.0, 0.0, 0.0, 0.0, 0.0, 0.0)"
1677822703.896145,0,1677822703,889322757,imu1_frame,0,0,0,,0.7223487757469961,-0.08886563539217046,0.6852195586867319,-0.028094508650665262,"(0.0, 0.0, 0.0, 0.0, 0.0, 0.0, 0.0, 0.0, 0.0)",-0.371546,-0.166405,1.352656,"(0.0, 0.0, 0.0, 0.0, 0.0, 0.0, 0.0, 0.0, 0.0)",-0.14,1.496,-9.948,"(0.0, 0.0, 0.0, 0.0, 0.0, 0.0, 0.0, 0.0, 0.0)",0,0,0,imu1_frame,0.2465,0.1204,0.3766,"(0.0, 0.0, 0.0, 0.0, 0.0, 0.0, 0.0, 0.0, 0.0)"
1677822703.9864967,0,1677822703,984099388,imu1_frame,0,0,0,,0.7912531967440708,0.249192883815712,0.00911317666852994,-0.5583352355967749,"(0.0, 0.0, 0.0, 0.0, 0.0, 0.0, 0.0, 0.0, 0.0)",-0.378649,-0.16326,1.370881,"(0.0, 0.0, 0.0, 0.0, 0.0, 0.0, 0.0, 0.0, 0.0)",-0.17,1.37,-10.425,"(0.0, 0.0, 0.0, 0.0, 0.0, 0.0, 0.0, 0.0, 0.0)",0,0,0,imu1_frame,0.2475,0.1098,0.3789,"(0.0, 0.0, 0.0, 0.0, 0.0, 0.0, 0.0, 0.0, 0.0)"
1677822704.0951543,0,1677822704,92663049,imu1_frame,0,0,0,,0.5645096986279082,0.5418601473110629,-0.6220157444623415,0.02850955194352317,"(0.0, 0.0, 0.0, 0.0, 0.0, 0.0, 0.0, 0.0, 0.0)",-0.177169,-0.22773,1.42166,"(0.0, 0.0, 0.0, 0.0, 0.0, 0.0, 0.0, 0.0, 0.0)",-0.1,1.856,-10.584,"(0.0, 0.0, 0.0, 0.0, 0.0, 0.0, 0.0, 0.0, 0.0)",0,0,0,imu1_frame,0.2484,0.0992,0.3812,"(0.0, 0.0, 0.0, 0.0, 0.0, 0.0, 0.0, 0.0, 0.0)"
1677822704.1864538,0,1677822704,183591365,imu1_frame,0,0,0,,0.35093666449524197,0.6031747474244359,-0.09824672022624575,0.7094866197097784,"(0.0, 0.0, 0.0, 0.0, 0.0, 0.0, 0.0, 0.0, 0.0)",-0.149809,-0.122069,1.500358,"(0.0, 0.0, 0.0, 0.0, 0.0, 0.0, 0.0, 0.0, 0.0)",-0.075,0.967,-10.625,"(0.0, 0.0, 0.0, 0.0, 0.0, 0.0, 0.0, 0.0, 0.0)",0,0,0,imu1_frame,0.2493,0.0905,0.3879,"(0.0, 0.0, 0.0, 0.0, 0.0, 0.0, 0.0, 0.0, 0.0)"
1677822704.2974048,0,1677822704,290510892,imu1_frame,0,0,0,,0.12257090284195024,0.7102153747146591,0.6524629316966947,0.23422770557126651,"(0.0, 0.0, 0.0, 0.0, 0.0, 0.0, 0.0, 0.0, 0.0)",-0.230852,-0.039851,1.361633,"(0.0, 0.0, 0.0, 0.0, 0.0, 0.0, 0.0, 0.0, 0.0)",0.028,0.805,-10.698,"(0.0, 0.0, 0.0, 0.0, 0.0, 0.0, 0.0, 0.0, 0.0)",0,0,0,imu1_frame,0.2484,0.0857,0.3814,"(0.0, 0.0, 0.0, 0.0, 0.0, 0.0, 0.0, 0.0, 0.0)"
1677822704.3924932,0,1677822704,387167692,imu1_frame,0,0,0,,-0.1827576327165974,0.6857392784704057,0.4076030476734104,-0.5746486275751996,"(0.0, 0.0, 0.0, 0.0, 0.0, 0.0, 0.0, 0.0, 0.0)",-0.294149,-0.008898,1.316047,"(0.0, 0.0, 0.0, 0.0, 0.0, 0.0, 0.0, 0.0, 0.0)",0.179,1.324,-9.916,"(0.0, 0.0, 0.0, 0.0, 0.0, 0.0, 0.0, 0.0, 0.0)",0,0,0,imu1_frame,0.2446,0.0801,0.3791,"(0.0, 0.0, 0.0, 0.0, 0.0, 0.0, 0.0, 0.0, 0.0)"
1677822704.4950044,0,1677822704,488965749,imu1_frame,0,0,0,,-0.48772244818992194,0.5101986203071932,-0.49720182461924345,-0.5045934273883877,"(0.0, 0.0, 0.0, 0.0, 0.0, 0.0, 0.0, 0.0, 0.0)",0.236693,-0.086158,1.295846,"(0.0, 0.0, 0.0, 0.0, 0.0, 0.0, 0.0, 0.0, 0.0)",0.663,1.798,-10.242,"(0.0, 0.0, 0.0, 0.0, 0.0, 0.0, 0.0, 0.0, 0.0)",0,0,0,imu1_frame,0.2436,0.0733,0.3824,"(0.0, 0.0, 0.0, 0.0, 0.0, 0.0, 0.0, 0.0, 0.0)"
1677822704.5950081,0,1677822704,588868856,imu1_frame,0,0,0,,-0.23366420658654544,-0.17573722816374626,-0.7154385704006039,0.6345589942477717,"(0.0, 0.0, 0.0, 0.0, 0.0, 0.0, 0.0, 0.0, 0.0)",0.812617,-0.005303,1.466983,"(0.0, 0.0, 0.0, 0.0, 0.0, 0.0, 0.0, 0.0, 0.0)",0.766,2.886,-10.128,"(0.0, 0.0, 0.0, 0.0, 0.0, 0.0, 0.0, 0.0, 0.0)",0,0,0,imu1_frame,0.2389,0.0725,0.3834,"(0.0, 0.0, 0.0, 0.0, 0.0, 0.0, 0.0, 0.0, 0.0)"
1677822704.6866517,0,1677822704,683931350,imu1_frame,0,0,0,,0.4545546863644311,0.3046760759090692,-0.028992130807830974,0.8364878852822715,"(0.0, 0.0, 0.0, 0.0, 0.0, 0.0, 0.0, 0.0, 0.0)",0.337535,-0.100031,1.558123,"(0.0, 0.0, 0.0, 0.0, 0.0, 0.0, 0.0, 0.0, 0.0)",-0.175,0.0,-8.942,"(0.0, 0.0, 0.0, 0.0, 0.0, 0.0, 0.0, 0.0, 0.0)",0,0,0,imu1_frame,0.2371,0.0735,0.3877,"(0.0, 0.0, 0.0, 0.0, 0.0, 0.0, 0.0, 0.0, 0.0)"
1677822704.7864475,0,1677822704,783867359,imu1_frame,0,0,0,,-0.311132936822744,0.6544773619022987,0.1975671346762069,0.6601688463395522,"(0.0, 0.0, 0.0, 0.0, 0.0, 0.0, 0.0, 0.0, 0.0)",-0.226846,-0.163972,1.298564,"(0.0, 0.0, 0.0, 0.0, 0.0, 0.0, 0.0, 0.0, 0.0)",-0.393,-2.381,-8.923,"(0.0, 0.0, 0.0, 0.0, 0.0, 0.0, 0.0, 0.0, 0.0)",0,0,0,imu1_frame,0.2361,0.0687,0.3888,"(0.0, 0.0, 0.0, 0.0, 0.0, 0.0, 0.0, 0.0, 0.0)"
1677822704.899265,0,1677822704,891885042,imu1_frame,0,0,0,,-0.8377954556051592,0.01701233931130966,0.1913553545862372,0.5110699395872115,"(0.0, 0.0, 0.0, 0.0, 0.0, 0.0, 0.0, 0.0, 0.0)",-0.065049,-0.179168,1.079092,"(0.0, 0.0, 0.0, 0.0, 0.0, 0.0, 0.0, 0.0, 0.0)",-0.049,-2.354,-10.776,"(0.0, 0.0, 0.0, 0.0, 0.0, 0.0, 0.0, 0.0, 0.0)",0,0,0,imu1_frame,0.2361,0.0601,0.39,"(0.0, 0.0, 0.0, 0.0, 0.0, 0.0, 0.0, 0.0, 0.0)"
1677822705.000054,0,1677822704,992594718,imu1_frame,0,0,0,,-0.41447421112402394,-0.5744361166704339,0.27524799099539243,0.6499790916873479,"(0.0, 0.0, 0.0, 0.0, 0.0, 0.0, 0.0, 0.0, 0.0)",0.356413,-0.074845,1.00388,"(0.0, 0.0, 0.0, 0.0, 0.0, 0.0, 0.0, 0.0, 0.0)",0.088,-2.095,-11.403,"(0.0, 0.0, 0.0, 0.0, 0.0, 0.0, 0.0, 0.0, 0.0)",0,0,0,imu1_frame,0.2333,0.064,0.3866,"(0.0, 0.0, 0.0, 0.0, 0.0, 0.0, 0.0, 0.0, 0.0)"
1677822705.0968707,0,1677822705,91823816,imu1_frame,0,0,0,,0.30737399768478857,-0.5740694236975653,0.5637518215523426,0.5080840540887231,"(0.0, 0.0, 0.0, 0.0, 0.0, 0.0, 0.0, 0.0, 0.0)",0.110762,0.046146,0.838354,"(0.0, 0.0, 0.0, 0.0, 0.0, 0.0, 0.0, 0.0, 0.0)",0.244,-3.618,-10.65,"(0.0, 0.0, 0.0, 0.0, 0.0, 0.0, 0.0, 0.0, 0.0)",0,0,0,imu1_frame,0.2314,0.066,0.3865,"(0.0, 0.0, 0.0, 0.0, 0.0, 0.0, 0.0, 0.0, 0.0)"
1677822705.1861603,0,1677822705,183857202,imu1_frame,0,0,0,,0.6423724854096832,-0.2784410333117847,0.6632683560619128,0.26439226313146835,"(0.0, 0.0, 0.0, 0.0, 0.0, 0.0, 0.0, 0.0, 0.0)",0.091685,0.086737,0.479758,"(0.0, 0.0, 0.0, 0.0, 0.0, 0.0, 0.0, 0.0, 0.0)",0.875,-3.932,-10.177,"(0.0, 0.0, 0.0, 0.0, 0.0, 0.0, 0.0, 0.0, 0.0)",0,0,0,imu1_frame,0.2295,0.0574,0.3909,"(0.0, 0.0, 0.0, 0.0, 0.0, 0.0, 0.0, 0.0, 0.0)"
1677822705.2937632,0,1677822705,288028717,imu1_frame,0,0,0,,0.7173313582107101,-0.006272901072925913,0.6963093831714318,0.02344389359998228,"(0.0, 0.0, 0.0, 0.0, 0.0, 0.0, 0.0, 0.0, 0.0)",0.196951,0.163355,0.220128,"(0.0, 0.0, 0.0, 0.0, 0.0, 0.0, 0.0, 0.0, 0.0)",0.929,-2.743,-10.258,"(0.0, 0.0, 0.0, 0.0, 0.0, 0.0, 0.0, 0.0, 0.0)",0,0,0,imu1_frame,0.2276,0.0584,0.3886,"(0.0, 0.0, 0.0, 0.0, 0.0, 0.0, 0.0, 0.0, 0.0)"
1677822705.3902528,0,1677822705,387798070,imu1_frame,0,0,0,,0.6740966218828542,0.13486845986168555,0.7065165595860011,-0.16804342870645628,"(0.0, 0.0, 0.0, 0.0, 0.0, 0.0, 0.0, 0.0, 0.0)",-0.075541,0.260936,0.119169,"(0.0, 0.0, 0.0, 0.0, 0.0, 0.0, 0.0, 0.0, 0.0)",0.909,-2.91,-10.329,"(0.0, 0.0, 0.0, 0.0, 0.0, 0.0, 0.0, 0.0, 0.0)",0,0,0,imu1_frame,0.2258,0.0613,0.3962,"(0.0, 0.0, 0.0, 0.0, 0.0, 0.0, 0.0, 0.0, 0.0)"
1677822705.4939537,0,1677822705,488023996,imu1_frame,0,0,0,,0.5899237229287521,-0.007667626000587069,0.7582651108567149,-0.2774260807762132,"(0.0, 0.0, 0.0, 0.0, 0.0, 0.0, 0.0, 0.0, 0.0)",-0.241075,0.390509,-0.106179,"(0.0, 0.0, 0.0, 0.0, 0.0, 0.0, 0.0, 0.0, 0.0)",0.921,-3.118,-9.686,"(0.0, 0.0, 0.0, 0.0, 0.0, 0.0, 0.0, 0.0, 0.0)",0,0,0,imu1_frame,0.222,0.0547,0.3918,"(0.0, 0.0, 0.0, 0.0, 0.0, 0.0, 0.0, 0.0, 0.0)"
1677822705.597268,0,1677822705,594817161,imu1_frame,0,0,0,,0.48162506933790783,-0.35680685849504085,0.7229874969521262,-0.34353345916672323,"(0.0, 0.0, 0.0, 0.0, 0.0, 0.0, 0.0, 0.0, 0.0)",-0.333662,0.382709,-0.307178,"(0.0, 0.0, 0.0, 0.0, 0.0, 0.0, 0.0, 0.0, 0.0)",0.968,-2.856,-8.719,"(0.0, 0.0, 0.0, 0.0, 0.0, 0.0, 0.0, 0.0, 0.0)",0,0,0,imu1_frame,0.2182,0.0605,0.3894,"(0.0, 0.0, 0.0, 0.0, 0.0, 0.0, 0.0, 0.0, 0.0)"
1677822705.6970403,0,1677822705,689758300,imu1_frame,0,0,0,,0.288549605871534,-0.7119887686102522,0.49947613708464145,-0.40041816493166693,"(0.0, 0.0, 0.0, 0.0, 0.0, 0.0, 0.0, 0.0, 0.0)",-0.272694,0.399413,-0.42293,"(0.0, 0.0, 0.0, 0.0, 0.0, 0.0, 0.0, 0.0, 0.0)",1.159,-0.811,-8.544,"(0.0, 0.0, 0.0, 0.0, 0.0, 0.0, 0.0, 0.0, 0.0)",0,0,0,imu1_frame,0.2135,0.053,0.3871,"(0.0, 0.0, 0.0, 0.0, 0.0, 0.0, 0.0, 0.0, 0.0)"
1677822705.7864823,0,1677822705,784041404,imu1_frame,0,0,0,,0.06566304648830742,-0.7879016881381531,0.2633354100467117,-0.5527691706041981,"(0.0, 0.0, 0.0, 0.0, 0.0, 0.0, 0.0, 0.0, 0.0)",-0.165535,0.331376,-0.337404,"(0.0, 0.0, 0.0, 0.0, 0.0, 0.0, 0.0, 0.0, 0.0)",0.974,0.014,-8.112,"(0.0, 0.0, 0.0, 0.0, 0.0, 0.0, 0.0, 0.0, 0.0)",0,0,0,imu1_frame,0.2107,0.0588,0.3979,"(0.0, 0.0, 0.0, 0.0, 0.0, 0.0, 0.0, 0.0, 0.0)"
1677822705.9025123,0,1677822705,893896341,imu1_frame,0,0,0,,-0.06562124761436336,-0.7074272328562425,0.07118214083873112,-0.7001240353683832,"(0.0, 0.0, 0.0, 0.0, 0.0, 0.0, 0.0, 0.0, 0.0)",-0.248399,0.204516,-0.366835,"(0.0, 0.0, 0.0, 0.0, 0.0, 0.0, 0.0, 0.0, 0.0)",0.701,-0.295,-8.035,"(0.0, 0.0, 0.0, 0.0, 0.0, 0.0, 0.0, 0.0, 0.0)",0,0,0,imu1_frame,0.2088,0.0531,0.3946,"(0.0, 0.0, 0.0, 0.0, 0.0, 0.0, 0.0, 0.0, 0.0)"
1677822705.9913232,0,1677822705,986688137,imu1_frame,0,0,0,,-0.13788554530933284,-0.5450975340177984,0.05297532474393726,-0.8252574566586706,"(0.0, 0.0, 0.0, 0.0, 0.0, 0.0, 0.0, 0.0, 0.0)",-0.122909,0.102561,-0.357389,"(0.0, 0.0, 0.0, 0.0, 0.0, 0.0, 0.0, 0.0, 0.0)",0.067,1.089,-9.503,"(0.0, 0.0, 0.0, 0.0, 0.0, 0.0, 0.0, 0.0, 0.0)",0,0,0,imu1_frame,0.2088,0.0531,0.3968,"(0.0, 0.0, 0.0, 0.0, 0.0, 0.0, 0.0, 0.0, 0.0)"
1677822706.3856976,0,1677822706,383306980,imu1_frame,0,0,0,,-0.08323791122054353,0.7008295706836607,0.1920034038390056,0.6819413874412026,"(0.0, 0.0, 0.0, 0.0, 0.0, 0.0, 0.0, 0.0, 0.0)",0.158715,-0.642591,-0.116266,"(0.0, 0.0, 0.0, 0.0, 0.0, 0.0, 0.0, 0.0, 0.0)",4.319,1.271,-5.471,"(0.0, 0.0, 0.0, 0.0, 0.0, 0.0, 0.0, 0.0, 0.0)",0,0,0,imu1_frame,0.0595,0.1936,0.4244,"(0.0, 0.0, 0.0, 0.0, 0.0, 0.0, 0.0, 0.0, 0.0)"
1677822706.4858909,0,1677822706,483404874,imu1_frame,0,0,0,,0.32632837124811276,0.4872813625148269,0.2655120913882607,0.7652254551378175,"(0.0, 0.0, 0.0, 0.0, 0.0, 0.0, 0.0, 0.0, 0.0)",0.237233,-0.732791,-0.079193,"(0.0, 0.0, 0.0, 0.0, 0.0, 0.0, 0.0, 0.0, 0.0)",3.993,0.7,-4.97,"(0.0, 0.0, 0.0, 0.0, 0.0, 0.0, 0.0, 0.0, 0.0)",0,0,0,imu1_frame,0.0642,0.1983,0.4256,"(0.0, 0.0, 0.0, 0.0, 0.0, 0.0, 0.0, 0.0, 0.0)"
1677822706.5859914,0,1677822706,583595752,imu1_frame,0,0,0,,0.34293203652693066,-0.14405418542783283,0.10207873097833144,0.9226190669317802,"(0.0, 0.0, 0.0, 0.0, 0.0, 0.0, 0.0, 0.0, 0.0)",0.211194,-0.791577,-0.172921,"(0.0, 0.0, 0.0, 0.0, 0.0, 0.0, 0.0, 0.0, 0.0)",3.644,-0.01,-5.181,"(0.0, 0.0, 0.0, 0.0, 0.0, 0.0, 0.0, 0.0, 0.0)",0,0,0,imu1_frame,0.0689,0.2001,0.4258,"(0.0, 0.0, 0.0, 0.0, 0.0, 0.0, 0.0, 0.0, 0.0)"
1677822706.6857066,0,1677822706,683318853,imu1_frame,0,0,0,,-0.28338178249849444,-0.5670444250125539,-0.3722988779837915,0.6779003841731971,"(0.0, 0.0, 0.0, 0.0, 0.0, 0.0, 0.0, 0.0, 0.0)",0.37394,-0.956786,-0.215175,"(0.0, 0.0, 0.0, 0.0, 0.0, 0.0, 0.0, 0.0, 0.0)",3.691,0.399,-5.163,"(0.0, 0.0, 0.0, 0.0, 0.0, 0.0, 0.0, 0.0, 0.0)",0,0,0,imu1_frame,0.0783,0.2066,0.4249,"(0.0, 0.0, 0.0, 0.0, 0.0, 0.0, 0.0, 0.0, 0.0)"
1677822706.786115,0,1677822706,783609151,imu1_frame,0,0,0,,-0.9166078936598503,-0.18535191300614118,-0.3360717860963186,-0.11193923447767007,"(0.0, 0.0, 0.0, 0.0, 0.0, 0.0, 0.0, 0.0, 0.0)",0.29011,-1.060485,-0.272765,"(0.0, 0.0, 0.0, 0.0, 0.0, 0.0, 0.0, 0.0, 0.0)",3.412,1.125,-5.719,"(0.0, 0.0, 0.0, 0.0, 0.0, 0.0, 0.0, 0.0, 0.0)",0,0,0,imu1_frame,0.0896,0.2025,0.4243,"(0.0, 0.0, 0.0, 0.0, 0.0, 0.0, 0.0, 0.0, 0.0)"
1677822706.8859267,0,1677822706,883437871,imu1_frame,0,0,0,,-0.7971388638578326,0.1797107673151551,0.4787880997232954,-0.32099163135788733,"(0.0, 0.0, 0.0, 0.0, 0.0, 0.0, 0.0, 0.0, 0.0)",0.230531,-1.132791,-0.233923,"(0.0, 0.0, 0.0, 0.0, 0.0, 0.0, 0.0, 0.0, 0.0)",2.538,0.874,-6.645,"(0.0, 0.0, 0.0, 0.0, 0.0, 0.0, 0.0, 0.0, 0.0)",0,0,0,imu1_frame,0.0971,0.2052,0.4288,"(0.0, 0.0, 0.0, 0.0, 0.0, 0.0, 0.0, 0.0, 0.0)"
1677822706.9865992,0,1677822706,984087705,imu1_frame,0,0,0,,-0.7444957793989658,-0.028118562889788923,0.5888681120209843,0.31332048691871517,"(0.0, 0.0, 0.0, 0.0, 0.0, 0.0, 0.0, 0.0, 0.0)",0.188811,-1.202958,-0.221908,"(0.0, 0.0, 0.0, 0.0, 0.0, 0.0, 0.0, 0.0, 0.0)",2.377,-0.376,-5.705,"(0.0, 0.0, 0.0, 0.0, 0.0, 0.0, 0.0, 0.0, 0.0)",0,0,0,imu1_frame,0.1084,0.2049,0.4281,"(0.0, 0.0, 0.0, 0.0, 0.0, 0.0, 0.0, 0.0, 0.0)"
1677822707.1015491,0,1677822707,94368696,imu1_frame,0,0,0,,-0.9074132621289592,0.32935725506626806,-0.25222089326407726,0.06715349022027704,"(0.0, 0.0, 0.0, 0.0, 0.0, 0.0, 0.0, 0.0, 0.0)",0.031999,-1.309265,-0.515851,"(0.0, 0.0, 0.0, 0.0, 0.0, 0.0, 0.0, 0.0, 0.0)",2.673,1.283,-6.352,"(0.0, 0.0, 0.0, 0.0, 0.0, 0.0, 0.0, 0.0, 0.0)",0,0,0,imu1_frame,0.1207,0.2046,0.4252,"(0.0, 0.0, 0.0, 0.0, 0.0, 0.0, 0.0, 0.0, 0.0)"
1677822707.187867,0,1677822707,184696912,imu1_frame,0,0,0,,0.1648293627422079,0.5360405235455967,-0.08510170613742482,-0.8235590676493458,"(0.0, 0.0, 0.0, 0.0, 0.0, 0.0, 0.0, 0.0, 0.0)",0.122485,-1.42911,-0.275925,"(0.0, 0.0, 0.0, 0.0, 0.0, 0.0, 0.0, 0.0, 0.0)",2.317,2.919,-8.826,"(0.0, 0.0, 0.0, 0.0, 0.0, 0.0, 0.0, 0.0, 0.0)",0,0,0,imu1_frame,0.131,0.2081,0.4245,"(0.0, 0.0, 0.0, 0.0, 0.0, 0.0, 0.0, 0.0, 0.0)"
1677822707.2862952,0,1677822707,283983469,imu1_frame,0,0,0,,0.42748673770143647,-0.46204726052593015,-0.00465464310199129,-0.7770107801230686,"(0.0, 0.0, 0.0, 0.0, 0.0, 0.0, 0.0, 0.0, 0.0)",0.282249,-1.404903,-0.138048,"(0.0, 0.0, 0.0, 0.0, 0.0, 0.0, 0.0, 0.0, 0.0)",2.133,1.295,-9.721,"(0.0, 0.0, 0.0, 0.0, 0.0, 0.0, 0.0, 0.0, 0.0)",0,0,0,imu1_frame,0.1452,0.2126,0.4282,"(0.0, 0.0, 0.0, 0.0, 0.0, 0.0, 0.0, 0.0, 0.0)"
1677822707.397538,0,1677822707,391138553,imu1_frame,0,0,0,,-0.3944491575214061,-0.5526919994999028,-0.3122619513233801,-0.6644049138704254,"(0.0, 0.0, 0.0, 0.0, 0.0, 0.0, 0.0, 0.0, 0.0)",0.223431,-1.436675,-0.215532,"(0.0, 0.0, 0.0, 0.0, 0.0, 0.0, 0.0, 0.0, 0.0)",2.027,0.821,-12.095,"(0.0, 0.0, 0.0, 0.0, 0.0, 0.0, 0.0, 0.0, 0.0)",0,0,0,imu1_frame,0.1565,0.2123,0.4242,"(0.0, 0.0, 0.0, 0.0, 0.0, 0.0, 0.0, 0.0, 0.0)"
1677822707.4920352,0,1677822707,487113237,imu1_frame,0,0,0,,-0.4869110340187881,0.355423703652041,-0.3157224547913401,-0.7327420878955644,"(0.0, 0.0, 0.0, 0.0, 0.0, 0.0, 0.0, 0.0, 0.0)",0.224591,-0.958776,-0.233164,"(0.0, 0.0, 0.0, 0.0, 0.0, 0.0, 0.0, 0.0, 0.0)",2.049,2.178,-16.086,"(0.0, 0.0, 0.0, 0.0, 0.0, 0.0, 0.0, 0.0, 0.0)",0,0,0,imu1_frame,0.1696,0.2129,0.4246,"(0.0, 0.0, 0.0, 0.0, 0.0, 0.0, 0.0, 0.0, 0.0)"
1677822707.585906,0,1677822707,583611488,imu1_frame,0,0,0,,-0.10903759612637964,0.7613908864196617,-0.3297944870962153,-0.5473849806023242,"(0.0, 0.0, 0.0, 0.0, 0.0, 0.0, 0.0, 0.0, 0.0)",0.3998,-0.74486,-0.020377,"(0.0, 0.0, 0.0, 0.0, 0.0, 0.0, 0.0, 0.0, 0.0)",1.961,2.583,-15.041,"(0.0, 0.0, 0.0, 0.0, 0.0, 0.0, 0.0, 0.0, 0.0)",0,0,0,imu1_frame,0.1753,0.2166,0.4182,"(0.0, 0.0, 0.0, 0.0, 0.0, 0.0, 0.0, 0.0, 0.0)"
1677822707.6975489,0,1677822707,689941406,imu1_frame,0,0,0,,0.18688380251339004,0.69553032082462,-0.5802324637859392,-0.3803186889184338,"(0.0, 0.0, 0.0, 0.0, 0.0, 0.0, 0.0, 0.0, 0.0)",0.394431,-0.606013,-0.042082,"(0.0, 0.0, 0.0, 0.0, 0.0, 0.0, 0.0, 0.0, 0.0)",1.643,1.039,-12.392,"(0.0, 0.0, 0.0, 0.0, 0.0, 0.0, 0.0, 0.0, 0.0)",0,0,0,imu1_frame,0.179,0.2155,0.4085,"(0.0, 0.0, 0.0, 0.0, 0.0, 0.0, 0.0, 0.0, 0.0)"
1677822707.7866611,0,1677822707,784241676,imu1_frame,0,0,0,,0.5830443294303223,0.3603786814411429,-0.6685489330101645,-0.2884940901523972,"(0.0, 0.0, 0.0, 0.0, 0.0, 0.0, 0.0, 0.0, 0.0)",0.240087,-0.727612,-0.107404,"(0.0, 0.0, 0.0, 0.0, 0.0, 0.0, 0.0, 0.0, 0.0)",1.674,0.893,-14.177,"(0.0, 0.0, 0.0, 0.0, 0.0, 0.0, 0.0, 0.0, 0.0)",0,0,0,imu1_frame,0.1875,0.225,0.413,"(0.0, 0.0, 0.0, 0.0, 0.0, 0.0, 0.0, 0.0, 0.0)"
1677822707.895355,0,1677822707,888793230,imu1_frame,0,0,0,,0.7046329365121026,-0.06039920968639151,-0.6715972486094381,-0.22091060615512148,"(0.0, 0.0, 0.0, 0.0, 0.0, 0.0, 0.0, 0.0, 0.0)",0.140655,-0.532497,-0.116855,"(0.0, 0.0, 0.0, 0.0, 0.0, 0.0, 0.0, 0.0, 0.0)",1.769,1.89,-13.94,"(0.0, 0.0, 0.0, 0.0, 0.0, 0.0, 0.0, 0.0, 0.0)",0,0,0,imu1_frame,0.1913,0.2268,0.4142,"(0.0, 0.0, 0.0, 0.0, 0.0, 0.0, 0.0, 0.0, 0.0)"
1677822707.9943247,0,1677822707,991775035,imu1_frame,0,0,0,,0.5953741097621739,-0.35349605123048067,-0.7120314446981044,-0.11653940514043609,"(0.0, 0.0, 0.0, 0.0, 0.0, 0.0, 0.0, 0.0, 0.0)",0.042936,-0.424497,-0.037618,"(0.0, 0.0, 0.0, 0.0, 0.0, 0.0, 0.0, 0.0, 0.0)",1.654,2.304,-13.779,"(0.0, 0.0, 0.0, 0.0, 0.0, 0.0, 0.0, 0.0, 0.0)",0,0,0,imu1_frame,0.195,0.2267,0.41,"(0.0, 0.0, 0.0, 0.0, 0.0, 0.0, 0.0, 0.0, 0.0)"
1677822708.0893056,0,1677822708,85382699,imu1_frame,0,0,0,,0.4482936040707188,-0.4699742570319645,-0.7602062624974986,0.015603869267683479,"(0.0, 0.0, 0.0, 0.0, 0.0, 0.0, 0.0, 0.0, 0.0)",-0.071231,-0.268804,0.067952,"(0.0, 0.0, 0.0, 0.0, 0.0, 0.0, 0.0, 0.0, 0.0)",1.489,1.494,-13.11,"(0.0, 0.0, 0.0, 0.0, 0.0, 0.0, 0.0, 0.0, 0.0)",0,0,0,imu1_frame,0.2007,0.2237,0.4124,"(0.0, 0.0, 0.0, 0.0, 0.0, 0.0, 0.0, 0.0, 0.0)"
1677822708.1898592,0,1677822708,185889244,imu1_frame,0,0,0,,0.3317631590895631,-0.4303438547762905,-0.8289529121523938,0.1325686326446118,"(0.0, 0.0, 0.0, 0.0, 0.0, 0.0, 0.0, 0.0, 0.0)",-0.224244,-0.20073,0.00828,"(0.0, 0.0, 0.0, 0.0, 0.0, 0.0, 0.0, 0.0, 0.0)",1.452,1.466,-11.893,"(0.0, 0.0, 0.0, 0.0, 0.0, 0.0, 0.0, 0.0, 0.0)",0,0,0,imu1_frame,0.2026,0.2198,0.4059,"(0.0, 0.0, 0.0, 0.0, 0.0, 0.0, 0.0, 0.0, 0.0)"
1677822708.2975907,0,1677822708,290321350,imu1_frame,0,0,0,,0.21676144447211332,-0.3386725416994549,-0.8913263771891495,0.20941030303225275,"(0.0, 0.0, 0.0, 0.0, 0.0, 0.0, 0.0, 0.0, 0.0)",-0.138592,-0.109015,0.064625,"(0.0, 0.0, 0.0, 0.0, 0.0, 0.0, 0.0, 0.0, 0.0)",1.524,2.473,-11.972,"(0.0, 0.0, 0.0, 0.0, 0.0, 0.0, 0.0, 0.0, 0.0)",0,0,0,imu1_frame,0.2016,0.2275,0.4102,"(0.0, 0.0, 0.0, 0.0, 0.0, 0.0, 0.0, 0.0, 0.0)"
1677822708.3968532,0,1677822708,390452384,imu1_frame,0,0,0,,0.2175562697920705,-0.36941392161096565,-0.8503538369226361,0.3051245254402174,"(0.0, 0.0, 0.0, 0.0, 0.0, 0.0, 0.0, 0.0, 0.0)",0.075015,0.034815,0.146731,"(0.0, 0.0, 0.0, 0.0, 0.0, 0.0, 0.0, 0.0, 0.0)",1.22,2.014,-12.088,"(0.0, 0.0, 0.0, 0.0, 0.0, 0.0, 0.0, 0.0, 0.0)",0,0,0,imu1_frame,0.2026,0.2217,0.4092,"(0.0, 0.0, 0.0, 0.0, 0.0, 0.0, 0.0, 0.0, 0.0)"
1677822708.4893193,0,1677822708,486944913,imu1_frame,0,0,0,,0.3408495234109811,-0.43698515299560786,-0.7344870286513984,0.3916559500310852,"(0.0, 0.0, 0.0, 0.0, 0.0, 0.0, 0.0, 0.0, 0.0)",0.051959,0.106621,0.198036,"(0.0, 0.0, 0.0, 0.0, 0.0, 0.0, 0.0, 0.0, 0.0)",1.168,1.636,-11.617,"(0.0, 0.0, 0.0, 0.0, 0.0, 0.0, 0.0, 0.0, 0.0)",0,0,0,imu1_frame,0.2035,0.2236,0.4114,"(0.0, 0.0, 0.0, 0.0, 0.0, 0.0, 0.0, 0.0, 0.0)"
1677822708.586525,0,1677822708,584088325,imu1_frame,0,0,0,,0.48239258138905616,-0.38094099836428996,-0.6403050804588991,0.46064167975178216,"(0.0, 0.0, 0.0, 0.0, 0.0, 0.0, 0.0, 0.0, 0.0)",-0.046735,0.195818,0.151456,"(0.0, 0.0, 0.0, 0.0, 0.0, 0.0, 0.0, 0.0, 0.0)",1.445,1.742,-11.428,"(0.0, 0.0, 0.0, 0.0, 0.0, 0.0, 0.0, 0.0, 0.0)",0,0,0,imu1_frame,0.2035,0.2217,0.4081,"(0.0, 0.0, 0.0, 0.0, 0.0, 0.0, 0.0, 0.0, 0.0)"
1677822708.68927,0,1677822708,686955690,imu1_frame,0,0,0,,0.6032918759678662,-0.2025911525254201,-0.5719307293251081,0.5175818564857588,"(0.0, 0.0, 0.0, 0.0, 0.0, 0.0, 0.0, 0.0, 0.0)",-0.167426,0.244087,0.187152,"(0.0, 0.0, 0.0, 0.0, 0.0, 0.0, 0.0, 0.0, 0.0)",1.317,2.421,-10.14,"(0.0, 0.0, 0.0, 0.0, 0.0, 0.0, 0.0, 0.0, 0.0)",0,0,0,imu1_frame,0.1988,0.2179,0.4102,"(0.0, 0.0, 0.0, 0.0, 0.0, 0.0, 0.0, 0.0, 0.0)"
1677822708.7861447,0,1677822708,783843994,imu1_frame,0,0,0,,0.6338952688942445,0.01666354030570147,-0.4794598169485795,0.6066443755855716,"(0.0, 0.0, 0.0, 0.0, 0.0, 0.0, 0.0, 0.0, 0.0)",-0.200216,0.219775,0.242971,"(0.0, 0.0, 0.0, 0.0, 0.0, 0.0, 0.0, 0.0, 0.0)",1.326,2.659,-9.076,"(0.0, 0.0, 0.0, 0.0, 0.0, 0.0, 0.0, 0.0, 0.0)",0,0,0,imu1_frame,0.1988,0.216,0.4102,"(0.0, 0.0, 0.0, 0.0, 0.0, 0.0, 0.0, 0.0, 0.0)"
1677822708.893833,0,1677822708,888254165,imu1_frame,0,0,0,,0.6050437218040985,0.20135611963930553,-0.3356114065312459,0.6933561794599983,"(0.0, 0.0, 0.0, 0.0, 0.0, 0.0, 0.0, 0.0, 0.0)",-0.154254,0.152237,0.272444,"(0.0, 0.0, 0.0, 0.0, 0.0, 0.0, 0.0, 0.0, 0.0)",1.385,2.577,-9.71,"(0.0, 0.0, 0.0, 0.0, 0.0, 0.0, 0.0, 0.0, 0.0)",0,0,0,imu1_frame,0.1969,0.2161,0.4123,"(0.0, 0.0, 0.0, 0.0, 0.0, 0.0, 0.0, 0.0, 0.0)"
1677822708.989427,0,1677822708,987149477,imu1_frame,0,0,0,,0.5771207902557822,0.37216835583277696,-0.16215955214115424,0.7086089104863478,"(0.0, 0.0, 0.0, 0.0, 0.0, 0.0, 0.0, 0.0, 0.0)",-0.066055,0.172979,0.370633,"(0.0, 0.0, 0.0, 0.0, 0.0, 0.0, 0.0, 0.0, 0.0)",1.368,2.615,-9.21,"(0.0, 0.0, 0.0, 0.0, 0.0, 0.0, 0.0, 0.0, 0.0)",0,0,0,imu1_frame,0.1979,0.2151,0.4113,"(0.0, 0.0, 0.0, 0.0, 0.0, 0.0, 0.0, 0.0, 0.0)"
1677822709.1028621,0,1677822709,94878673,imu1_frame,0,0,0,,0.5007451115468573,0.5556724785791911,0.023860053441910167,0.6632594723494969,"(0.0, 0.0, 0.0, 0.0, 0.0, 0.0, 0.0, 0.0, 0.0)",-0.115834,0.136086,0.408684,"(0.0, 0.0, 0.0, 0.0, 0.0, 0.0, 0.0, 0.0, 0.0)",1.334,2.332,-9.003,"(0.0, 0.0, 0.0, 0.0, 0.0, 0.0, 0.0, 0.0, 0.0)",0,0,0,imu1_frame,0.196,0.2151,0.4145,"(0.0, 0.0, 0.0, 0.0, 0.0, 0.0, 0.0, 0.0, 0.0)"
1677822709.1968656,0,1677822709,190768957,imu1_frame,0,0,0,,0.3421594296255662,0.7178034452472749,0.2051722421268018,0.570604495048988,"(0.0, 0.0, 0.0, 0.0, 0.0, 0.0, 0.0, 0.0, 0.0)",-0.118757,0.113246,0.419085,"(0.0, 0.0, 0.0, 0.0, 0.0, 0.0, 0.0, 0.0, 0.0)",1.244,2.392,-8.931,"(0.0, 0.0, 0.0, 0.0, 0.0, 0.0, 0.0, 0.0, 0.0)",0,0,0,imu1_frame,0.1969,0.2045,0.4135,"(0.0, 0.0, 0.0, 0.0, 0.0, 0.0, 0.0, 0.0, 0.0)"
1677822709.2871833,0,1677822709,284430027,imu1_frame,0,0,0,,0.13476915662692715,0.8404325884158216,0.3333666425130526,0.4054343601747679,"(0.0, 0.0, 0.0, 0.0, 0.0, 0.0, 0.0, 0.0, 0.0)",-0.126346,0.070796,0.46155,"(0.0, 0.0, 0.0, 0.0, 0.0, 0.0, 0.0, 0.0, 0.0)",1.312,2.772,-8.944,"(0.0, 0.0, 0.0, 0.0, 0.0, 0.0, 0.0, 0.0, 0.0)",0,0,0,imu1_frame,0.196,0.2055,0.4146,"(0.0, 0.0, 0.0, 0.0, 0.0, 0.0, 0.0, 0.0, 0.0)"
1677822709.3857281,0,1677822709,383449792,imu1_frame,0,0,0,,-0.1549890398858727,0.909246780335036,0.342988115786675,0.1777859454364503,"(0.0, 0.0, 0.0, 0.0, 0.0, 0.0, 0.0, 0.0, 0.0)",-0.069228,0.043726,0.560008,"(0.0, 0.0, 0.0, 0.0, 0.0, 0.0, 0.0, 0.0, 0.0)",1.342,3.357,-9.23,"(0.0, 0.0, 0.0, 0.0, 0.0, 0.0, 0.0, 0.0, 0.0)",0,0,0,imu1_frame,0.1969,0.2007,0.4125,"(0.0, 0.0, 0.0, 0.0, 0.0, 0.0, 0.0, 0.0, 0.0)"
1677822709.4973505,0,1677822709,490825176,imu1_frame,0,0,0,,-0.5609005895567087,0.8115095454972366,0.16356800966126833,0.009396404485548515,"(0.0, 0.0, 0.0, 0.0, 0.0, 0.0, 0.0, 0.0, 0.0)",-0.12203,0.019241,0.634877,"(0.0, 0.0, 0.0, 0.0, 0.0, 0.0, 0.0, 0.0, 0.0)",1.075,3.068,-8.411,"(0.0, 0.0, 0.0, 0.0, 0.0, 0.0, 0.0, 0.0, 0.0)",0,0,0,imu1_frame,0.1969,0.2016,0.4103,"(0.0, 0.0, 0.0, 0.0, 0.0, 0.0, 0.0, 0.0, 0.0)"
1677822709.5889585,0,1677822709,585386037,imu1_frame,0,0,0,,-0.8925104657905492,0.44983207695178684,-0.03279710376665136,0.0007217922819314007,"(0.0, 0.0, 0.0, 0.0, 0.0, 0.0, 0.0, 0.0, 0.0)",-0.223991,0.024866,0.662356,"(0.0, 0.0, 0.0, 0.0, 0.0, 0.0, 0.0, 0.0, 0.0)",1.343,3.352,-8.356,"(0.0, 0.0, 0.0, 0.0, 0.0, 0.0, 0.0, 0.0, 0.0)",0,0,0,imu1_frame,0.1978,0.2083,0.4124,"(0.0, 0.0, 0.0, 0.0, 0.0, 0.0, 0.0, 0.0, 0.0)"
1677822709.69033,0,1677822709,687885284,imu1_frame,0,0,0,,-0.9653448122074201,-0.09370704733763761,-0.19620819025347133,0.14432854499696274,"(0.0, 0.0, 0.0, 0.0, 0.0, 0.0, 0.0, 0.0, 0.0)",-0.192602,0.015384,0.733272,"(0.0, 0.0, 0.0, 0.0, 0.0, 0.0, 0.0, 0.0, 0.0)",1.291,3.75,-9.044,"(0.0, 0.0, 0.0, 0.0, 0.0, 0.0, 0.0, 0.0, 0.0)",0,0,0,imu1_frame,0.1997,0.1948,0.4137,"(0.0, 0.0, 0.0, 0.0, 0.0, 0.0, 0.0, 0.0, 0.0)"
1677822709.7863576,0,1677822709,783934116,imu1_frame,0,0,0,,-0.5722322580177631,-0.6543281581092965,-0.12952291909025235,0.477104514566282,"(0.0, 0.0, 0.0, 0.0, 0.0, 0.0, 0.0, 0.0, 0.0)",-0.212311,0.019695,0.850112,"(0.0, 0.0, 0.0, 0.0, 0.0, 0.0, 0.0, 0.0, 0.0)",1.066,2.962,-9.091,"(0.0, 0.0, 0.0, 0.0, 0.0, 0.0, 0.0, 0.0, 0.0)",0,0,0,imu1_frame,0.1969,0.1872,0.4137,"(0.0, 0.0, 0.0, 0.0, 0.0, 0.0, 0.0, 0.0, 0.0)"
1677822709.8896885,0,1677822709,887232542,imu1_frame,0,0,0,,0.12027881328387427,-0.741833466143717,0.22374313909663107,0.620608671621181,"(0.0, 0.0, 0.0, 0.0, 0.0, 0.0, 0.0, 0.0, 0.0)",-0.237307,-0.005055,0.835443,"(0.0, 0.0, 0.0, 0.0, 0.0, 0.0, 0.0, 0.0, 0.0)",1.015,3.029,-8.618,"(0.0, 0.0, 0.0, 0.0, 0.0, 0.0, 0.0, 0.0, 0.0)",0,0,0,imu1_frame,0.1997,0.19,0.4138,"(0.0, 0.0, 0.0, 0.0, 0.0, 0.0, 0.0, 0.0, 0.0)"
1677822709.985666,0,1677822709,983401775,imu1_frame,0,0,0,,0.6291460913612082,-0.230015026219604,0.5829046262265225,0.45988094129005536,"(0.0, 0.0, 0.0, 0.0, 0.0, 0.0, 0.0, 0.0, 0.0)",-0.242369,-0.068031,0.917959,"(0.0, 0.0, 0.0, 0.0, 0.0, 0.0, 0.0, 0.0, 0.0)",0.938,3.697,-8.737,"(0.0, 0.0, 0.0, 0.0, 0.0, 0.0, 0.0, 0.0, 0.0)",0,0,0,imu1_frame,0.2034,0.1793,0.4151,"(0.0, 0.0, 0.0, 0.0, 0.0, 0.0, 0.0, 0.0, 0.0)"
1677822710.0912762,0,1677822710,86303949,imu1_frame,0,0,0,,0.44581979189650944,0.566940108152502,0.6871829901402302,0.08719612940558008,"(0.0, 0.0, 0.0, 0.0, 0.0, 0.0, 0.0, 0.0, 0.0)",-0.236603,-0.135381,1.088123,"(0.0, 0.0, 0.0, 0.0, 0.0, 0.0, 0.0, 0.0, 0.0)",0.997,3.802,-8.169,"(0.0, 0.0, 0.0, 0.0, 0.0, 0.0, 0.0, 0.0, 0.0)",0,0,0,imu1_frame,0.2053,0.1754,0.4141,"(0.0, 0.0, 0.0, 0.0, 0.0, 0.0, 0.0, 0.0, 0.0)"
1677822710.485779,0,1677822710,483271598,imu1_frame,0,0,0,,-0.8915396964090745,-0.07682315685008073,0.29503793723357447,0.3349743093005202,"(0.0, 0.0, 0.0, 0.0, 0.0, 0.0, 0.0, 0.0, 0.0)",-0.266192,-0.237084,0.474542,"(0.0, 0.0, 0.0, 0.0, 0.0, 0.0, 0.0, 0.0, 0.0)",1.633,3.397,-8.042,"(0.0, 0.0, 0.0, 0.0, 0.0, 0.0, 0.0, 0.0, 0.0)",0,0,0,imu1_frame,0.18,0.2069,0.4162,"(0.0, 0.0, 0.0, 0.0, 0.0, 0.0, 0.0, 0.0, 0.0)"
1677822710.5859509,0,1677822710,583586931,imu1_frame,0,0,0,,-0.7930295115132907,-0.2523028788421451,0.5544409498099465,-0.006533327697400559,"(0.0, 0.0, 0.0, 0.0, 0.0, 0.0, 0.0, 0.0, 0.0)",-0.418389,-0.315897,0.494189,"(0.0, 0.0, 0.0, 0.0, 0.0, 0.0, 0.0, 0.0, 0.0)",1.526,6.213,-9.248,"(0.0, 0.0, 0.0, 0.0, 0.0, 0.0, 0.0, 0.0, 0.0)",0,0,0,imu1_frame,0.1818,0.1962,0.4197,"(0.0, 0.0, 0.0, 0.0, 0.0, 0.0, 0.0, 0.0, 0.0)"
1677822710.6859698,0,1677822710,683565139,imu1_frame,0,0,0,,-0.5289099333568662,-0.33654984136455335,0.5613766829719427,-0.5402265325669855,"(0.0, 0.0, 0.0, 0.0, 0.0, 0.0, 0.0, 0.0, 0.0)",-0.216749,-0.27454,1.044857,"(0.0, 0.0, 0.0, 0.0, 0.0, 0.0, 0.0, 0.0, 0.0)",1.661,7.89,-10.111,"(0.0, 0.0, 0.0, 0.0, 0.0, 0.0, 0.0, 0.0, 0.0)",0,0,0,imu1_frame,0.1865,0.1855,0.4177,"(0.0, 0.0, 0.0, 0.0, 0.0, 0.0, 0.0, 0.0, 0.0)"
1677822710.7858942,0,1677822710,783491134,imu1_frame,0,0,0,,-0.5565087577798155,-0.31776166567812086,-0.202245956372953,-0.7405552642920191,"(0.0, 0.0, 0.0, 0.0, 0.0, 0.0, 0.0, 0.0, 0.0)",-0.261323,-0.336709,1.268354,"(0.0, 0.0, 0.0, 0.0, 0.0, 0.0, 0.0, 0.0, 0.0)",1.289,4.357,-9.917,"(0.0, 0.0, 0.0, 0.0, 0.0, 0.0, 0.0, 0.0, 0.0)",0,0,0,imu1_frame,0.1941,0.1853,0.4224,"(0.0, 0.0, 0.0, 0.0, 0.0, 0.0, 0.0, 0.0, 0.0)"
1677822710.8860803,0,1677822710,883577346,imu1_frame,0,0,0,,-0.4525642938950929,-0.6378719114743738,-0.6101372226715327,0.12663946444111723,"(0.0, 0.0, 0.0, 0.0, 0.0, 0.0, 0.0, 0.0, 0.0)",-0.260551,-0.322501,1.239135,"(0.0, 0.0, 0.0, 0.0, 0.0, 0.0, 0.0, 0.0, 0.0)",0.966,4.026,-10.48,"(0.0, 0.0, 0.0, 0.0, 0.0, 0.0, 0.0, 0.0, 0.0)",0,0,0,imu1_frame,0.1978,0.1785,0.4171,"(0.0, 0.0, 0.0, 0.0, 0.0, 0.0, 0.0, 0.0, 0.0)"
1677822710.985707,0,1677822710,983341932,imu1_frame,0,0,0,,0.027849190842884786,-0.6397519348125695,0.18140373802333765,0.7463474849586689,"(0.0, 0.0, 0.0, 0.0, 0.0, 0.0, 0.0, 0.0, 0.0)",-0.361299,-0.381533,1.277602,"(0.0, 0.0, 0.0, 0.0, 0.0, 0.0, 0.0, 0.0, 0.0)",0.657,4.421,-9.655,"(0.0, 0.0, 0.0, 0.0, 0.0, 0.0, 0.0, 0.0, 0.0)",0,0,0,imu1_frame,0.2006,0.1746,0.415,"(0.0, 0.0, 0.0, 0.0, 0.0, 0.0, 0.0, 0.0, 0.0)"
1677822711.087628,0,1677822711,84578990,imu1_frame,0,0,0,,0.07533193358660242,-0.20600879009381132,0.9749614108705962,0.03654757857100995,"(0.0, 0.0, 0.0, 0.0, 0.0, 0.0, 0.0, 0.0, 0.0)",-0.336908,-0.291745,1.513646,"(0.0, 0.0, 0.0, 0.0, 0.0, 0.0, 0.0, 0.0, 0.0)",0.675,4.019,-10.641,"(0.0, 0.0, 0.0, 0.0, 0.0, 0.0, 0.0, 0.0, 0.0)",0,0,0,imu1_frame,0.2034,0.1659,0.4141,"(0.0, 0.0, 0.0, 0.0, 0.0, 0.0, 0.0, 0.0, 0.0)"
1677822711.1892195,0,1677822711,185341119,imu1_frame,0,0,0,,-0.35132934262344107,-0.38787308208355065,0.44703580106822216,-0.7254523814628228,"(0.0, 0.0, 0.0, 0.0, 0.0, 0.0, 0.0, 0.0, 0.0)",-0.157539,-0.219981,1.662408,"(0.0, 0.0, 0.0, 0.0, 0.0, 0.0, 0.0, 0.0, 0.0)",0.38,2.399,-9.932,"(0.0, 0.0, 0.0, 0.0, 0.0, 0.0, 0.0, 0.0, 0.0)",0,0,0,imu1_frame,0.21,0.1609,0.4122,"(0.0, 0.0, 0.0, 0.0, 0.0, 0.0, 0.0, 0.0, 0.0)"
1677822711.2910192,0,1677822711,286476373,imu1_frame,0,0,0,,0.3370694366222797,-0.7348759195664181,0.17012431627287428,-0.5633820149323525,"(0.0, 0.0, 0.0, 0.0, 0.0, 0.0, 0.0, 0.0, 0.0)",-0.175907,-0.323133,1.61793,"(0.0, 0.0, 0.0, 0.0, 0.0, 0.0, 0.0, 0.0, 0.0)",0.358,0.918,-9.438,"(0.0, 0.0, 0.0, 0.0, 0.0, 0.0, 0.0, 0.0, 0.0)",0,0,0,imu1_frame,0.2128,0.1454,0.4113,"(0.0, 0.0, 0.0, 0.0, 0.0, 0.0, 0.0, 0.0, 0.0)"
1677822711.403218,0,1677822711,395687341,imu1_frame,0,0,0,,0.6067301251419276,0.28456746441711767,0.0452609580592042,-0.7408450304321657,"(0.0, 0.0, 0.0, 0.0, 0.0, 0.0, 0.0, 0.0, 0.0)",-0.244856,-0.256271,1.543132,"(0.0, 0.0, 0.0, 0.0, 0.0, 0.0, 0.0, 0.0, 0.0)",0.268,0.905,-9.684,"(0.0, 0.0, 0.0, 0.0, 0.0, 0.0, 0.0, 0.0, 0.0)",0,0,0,imu1_frame,0.2147,0.1463,0.4147,"(0.0, 0.0, 0.0, 0.0, 0.0, 0.0, 0.0, 0.0, 0.0)"
1677822711.492768,0,1677822711,487519741,imu1_frame,0,0,0,,-0.5042870479685351,0.5377425605082716,-0.3822710303337601,-0.5571322744526238,"(0.0, 0.0, 0.0, 0.0, 0.0, 0.0, 0.0, 0.0, 0.0)",-0.325364,-0.256366,1.590464,"(0.0, 0.0, 0.0, 0.0, 0.0, 0.0, 0.0, 0.0, 0.0)",0.503,0.597,-10.167,"(0.0, 0.0, 0.0, 0.0, 0.0, 0.0, 0.0, 0.0, 0.0)",0,0,0,imu1_frame,0.2194,0.1395,0.4116,"(0.0, 0.0, 0.0, 0.0, 0.0, 0.0, 0.0, 0.0, 0.0)"
1677822711.5867178,0,1677822711,584099531,imu1_frame,0,0,0,,-0.754799151759505,-0.5685588853202701,-0.2577963389932315,-0.20139533765256412,"(0.0, 0.0, 0.0, 0.0, 0.0, 0.0, 0.0, 0.0, 0.0)",-0.24744,-0.215095,1.544367,"(0.0, 0.0, 0.0, 0.0, 0.0, 0.0, 0.0, 0.0, 0.0)",0.508,-0.58,-10.776,"(0.0, 0.0, 0.0, 0.0, 0.0, 0.0, 0.0, 0.0, 0.0)",0,0,0,imu1_frame,0.2175,0.1337,0.4061,"(0.0, 0.0, 0.0, 0.0, 0.0, 0.0, 0.0, 0.0, 0.0)"
1677822711.694249,0,1677822711,688389062,imu1_frame,0,0,0,,0.1461693061659281,-0.8693196417609863,-0.17372198285255902,-0.43902000758199716,"(0.0, 0.0, 0.0, 0.0, 0.0, 0.0, 0.0, 0.0, 0.0)",-0.281534,-0.186532,1.517436,"(0.0, 0.0, 0.0, 0.0, 0.0, 0.0, 0.0, 0.0, 0.0)",0.189,-0.222,-10.042,"(0.0, 0.0, 0.0, 0.0, 0.0, 0.0, 0.0, 0.0, 0.0)",0,0,0,imu1_frame,0.2193,0.1318,0.4095,"(0.0, 0.0, 0.0, 0.0, 0.0, 0.0, 0.0, 0.0, 0.0)"
1677822711.7860546,0,1677822711,783584594,imu1_frame,0,0,0,,0.415175034846177,-0.24188980701708143,-0.7564236324348068,-0.4437818157561748,"(0.0, 0.0, 0.0, 0.0, 0.0, 0.0, 0.0, 0.0, 0.0)",-0.192178,-0.254851,1.454724,"(0.0, 0.0, 0.0, 0.0, 0.0, 0.0, 0.0, 0.0, 0.0)",0.334,-1.481,-10.062,"(0.0, 0.0, 0.0, 0.0, 0.0, 0.0, 0.0, 0.0, 0.0)",0,0,0,imu1_frame,0.2231,0.1191,0.4097,"(0.0, 0.0, 0.0, 0.0, 0.0, 0.0, 0.0, 0.0, 0.0)"
1677822711.9031415,0,1677822711,895482778,imu1_frame,0,0,0,,-0.0010271161924685634,-0.24494595114945142,-0.9121707396568008,0.32854979495014575,"(0.0, 0.0, 0.0, 0.0, 0.0, 0.0, 0.0, 0.0, 0.0)",0.008065,-0.214396,1.337473,"(0.0, 0.0, 0.0, 0.0, 0.0, 0.0, 0.0, 0.0, 0.0)",0.748,-1.676,-10.777,"(0.0, 0.0, 0.0, 0.0, 0.0, 0.0, 0.0, 0.0, 0.0)",0,0,0,imu1_frame,0.2231,0.1114,0.4044,"(0.0, 0.0, 0.0, 0.0, 0.0, 0.0, 0.0, 0.0, 0.0)"
1677822711.9905534,0,1677822711,986334323,imu1_frame,0,0,0,,0.16094092514087135,-0.6012736417147937,-0.0725142470392553,0.7793007829908554,"(0.0, 0.0, 0.0, 0.0, 0.0, 0.0, 0.0, 0.0, 0.0)",-0.028993,-0.081524,1.20893,"(0.0, 0.0, 0.0, 0.0, 0.0, 0.0, 0.0, 0.0, 0.0)",1.213,-2.737,-10.845,"(0.0, 0.0, 0.0, 0.0, 0.0, 0.0, 0.0, 0.0, 0.0)",0,0,0,imu1_frame,0.224,0.1105,0.4044,"(0.0, 0.0, 0.0, 0.0, 0.0, 0.0, 0.0, 0.0, 0.0)"
1677822712.0905237,0,1677822712,86376667,imu1_frame,0,0,0,,0.48227844151278987,-0.5653792456629432,0.5399496073691199,0.39523187488805755,"(0.0, 0.0, 0.0, 0.0, 0.0, 0.0, 0.0, 0.0, 0.0)",-0.225634,-0.015778,0.892077,"(0.0, 0.0, 0.0, 0.0, 0.0, 0.0, 0.0, 0.0, 0.0)",1.349,-1.931,-9.85,"(0.0, 0.0, 0.0, 0.0, 0.0, 0.0, 0.0, 0.0, 0.0)",0,0,0,imu1_frame,0.2249,0.1056,0.4099,"(0.0, 0.0, 0.0, 0.0, 0.0, 0.0, 0.0, 0.0, 0.0)"
1677822712.1917777,0,1677822712,187064409,imu1_frame,0,0,0,,0.6924329589603202,-0.4066643534219294,0.5702299991390218,-0.17320060358812536,"(0.0, 0.0, 0.0, 0.0, 0.0, 0.0, 0.0, 0.0, 0.0)",-0.177622,-0.061007,0.801344,"(0.0, 0.0, 0.0, 0.0, 0.0, 0.0, 0.0, 0.0, 0.0)",1.374,-0.996,-9.95,"(0.0, 0.0, 0.0, 0.0, 0.0, 0.0, 0.0, 0.0, 0.0)",0,0,0,imu1_frame,0.223,0.1037,0.4033,"(0.0, 0.0, 0.0, 0.0, 0.0, 0.0, 0.0, 0.0, 0.0)"
1677822712.2861118,0,1677822712,283748149,imu1_frame,0,0,0,,0.7872434947985398,-0.14632914921025597,0.18510300364577514,-0.5697125047162789,"(0.0, 0.0, 0.0, 0.0, 0.0, 0.0, 0.0, 0.0, 0.0)",-0.114703,0.010411,0.853499,"(0.0, 0.0, 0.0, 0.0, 0.0, 0.0, 0.0, 0.0, 0.0)",1.462,-0.763,-10.548,"(0.0, 0.0, 0.0, 0.0, 0.0, 0.0, 0.0, 0.0, 0.0)",0,0,0,imu1_frame,0.224,0.1028,0.4023,"(0.0, 0.0, 0.0, 0.0, 0.0, 0.0, 0.0, 0.0, 0.0)"
1677822712.3887472,0,1677822712,385817050,imu1_frame,0,0,0,,0.7454318851753965,0.13143356318860525,-0.36148844612151737,-0.5444103473962008,"(0.0, 0.0, 0.0, 0.0, 0.0, 0.0, 0.0, 0.0, 0.0)",-0.143187,0.013579,0.845673,"(0.0, 0.0, 0.0, 0.0, 0.0, 0.0, 0.0, 0.0, 0.0)",1.493,-1.544,-10.246,"(0.0, 0.0, 0.0, 0.0, 0.0, 0.0, 0.0, 0.0, 0.0)",0,0,0,imu1_frame,0.2221,0.0951,0.4056,"(0.0, 0.0, 0.0, 0.0, 0.0, 0.0, 0.0, 0.0, 0.0)"
1677822712.492006,0,1677822712,487204790,imu1_frame,0,0,0,,0.6505901334012107,0.3414796430253039,-0.6539144461599531,-0.18033310517935305,"(0.0, 0.0, 0.0, 0.0, 0.0, 0.0, 0.0, 0.0, 0.0)",-0.142213,0.084942,0.647259,"(0.0, 0.0, 0.0, 0.0, 0.0, 0.0, 0.0, 0.0, 0.0)",1.458,-2.032,-10.503,"(0.0, 0.0, 0.0, 0.0, 0.0, 0.0, 0.0, 0.0, 0.0)",0,0,0,imu1_frame,0.2221,0.0874,0.4024,"(0.0, 0.0, 0.0, 0.0, 0.0, 0.0, 0.0, 0.0, 0.0)"
1677822712.5923512,0,1677822712,587252140,imu1_frame,0,0,0,,0.5200219620678669,0.5171785783391393,-0.6573225363019963,0.17329327841466802,"(0.0, 0.0, 0.0, 0.0, 0.0, 0.0, 0.0, 0.0, 0.0)",-0.167344,0.085409,0.470897,"(0.0, 0.0, 0.0, 0.0, 0.0, 0.0, 0.0, 0.0, 0.0)",1.368,-2.04,-9.787,"(0.0, 0.0, 0.0, 0.0, 0.0, 0.0, 0.0, 0.0, 0.0)",0,0,0,imu1_frame,0.2192,0.0884,0.4001,"(0.0, 0.0, 0.0, 0.0, 0.0, 0.0, 0.0, 0.0, 0.0)"
1677822712.6962411,0,1677822712,689585685,imu1_frame,0,0,0,,0.38833664623144454,0.6237942091259753,-0.5321154519680563,0.42062879077809695,"(0.0, 0.0, 0.0, 0.0, 0.0, 0.0, 0.0, 0.0, 0.0)",-0.101806,0.008918,0.348565,"(0.0, 0.0, 0.0, 0.0, 0.0, 0.0, 0.0, 0.0, 0.0)",1.558,-1.199,-9.145,"(0.0, 0.0, 0.0, 0.0, 0.0, 0.0, 0.0, 0.0, 0.0)",0,0,0,imu1_frame,0.2202,0.0865,0.399,"(0.0, 0.0, 0.0, 0.0, 0.0, 0.0, 0.0, 0.0, 0.0)"
1677822712.7864003,0,1677822712,784092903,imu1_frame,0,0,0,,0.3195497749857979,0.6344676412073764,-0.34383689486179714,0.6140968517254191,"(0.0, 0.0, 0.0, 0.0, 0.0, 0.0, 0.0, 0.0, 0.0)",-0.07451,-0.046272,0.392032,"(0.0, 0.0, 0.0, 0.0, 0.0, 0.0, 0.0, 0.0, 0.0)",1.786,-1.175,-9.574,"(0.0, 0.0, 0.0, 0.0, 0.0, 0.0, 0.0, 0.0, 0.0)",0,0,0,imu1_frame,0.2202,0.0865,0.4034,"(0.0, 0.0, 0.0, 0.0, 0.0, 0.0, 0.0, 0.0, 0.0)"
1677822712.8964388,0,1677822712,889993429,imu1_frame,0,0,0,,0.2591947213036088,0.6459387528508711,-0.11624220634141536,0.708568256047846,"(0.0, 0.0, 0.0, 0.0, 0.0, 0.0, 0.0, 0.0, 0.0)",0.005058,0.015356,0.386827,"(0.0, 0.0, 0.0, 0.0, 0.0, 0.0, 0.0, 0.0, 0.0)",1.965,-0.856,-10.077,"(0.0, 0.0, 0.0, 0.0, 0.0, 0.0, 0.0, 0.0, 0.0)",0,0,0,imu1_frame,0.2192,0.0827,0.4012,"(0.0, 0.0, 0.0, 0.0, 0.0, 0.0, 0.0, 0.0, 0.0)"
1677822713.0015461,0,1677822712,993687629,imu1_frame,0,0,0,,0.19700157886039782,0.6823231816625592,0.07097945205631445,0.7004194251148224,"(0.0, 0.0, 0.0, 0.0, 0.0, 0.0, 0.0, 0.0, 0.0)",0.030839,0.081899,0.329726,"(0.0, 0.0, 0.0, 0.0, 0.0, 0.0, 0.0, 0.0, 0.0)",2.007,-1.562,-9.785,"(0.0, 0.0, 0.0, 0.0, 0.0, 0.0, 0.0, 0.0, 0.0)",0,0,0,imu1_frame,0.2193,0.0884,0.4088,"(0.0, 0.0, 0.0, 0.0, 0.0, 0.0, 0.0, 0.0, 0.0)"
1677822713.0932891,0,1677822713,87707996,imu1_frame,0,0,0,,0.10015670172107899,0.7124654561011372,0.1785708491069845,0.6711736443068692,"(0.0, 0.0, 0.0, 0.0, 0.0, 0.0, 0.0, 0.0, 0.0)",-0.044187,0.077157,0.195048,"(0.0, 0.0, 0.0, 0.0, 0.0, 0.0, 0.0, 0.0, 0.0)",1.966,-0.593,-8.793,"(0.0, 0.0, 0.0, 0.0, 0.0, 0.0, 0.0, 0.0, 0.0)",0,0,0,imu1_frame,0.2164,0.0789,0.4045,"(0.0, 0.0, 0.0, 0.0, 0.0, 0.0, 0.0, 0.0, 0.0)"
1677822713.1865528,0,1677822713,183784246,imu1_frame,0,0,0,,-0.011593607969775932,0.7051122284788673,0.3138554500220051,0.6357492351511667,"(0.0, 0.0, 0.0, 0.0, 0.0, 0.0, 0.0, 0.0, 0.0)",-0.159008,0.051731,0.146701,"(0.0, 0.0, 0.0, 0.0, 0.0, 0.0, 0.0, 0.0, 0.0)",2.01,-0.122,-9.171,"(0.0, 0.0, 0.0, 0.0, 0.0, 0.0, 0.0, 0.0, 0.0)",0,0,0,imu1_frame,0.2155,0.0808,0.4044,"(0.0, 0.0, 0.0, 0.0, 0.0, 0.0, 0.0, 0.0, 0.0)"
1677822713.2862854,0,1677822713,283760786,imu1_frame,0,0,0,,-0.13244201707033504,0.669465343759601,0.4344733790632124,0.5877994117933213,"(0.0, 0.0, 0.0, 0.0, 0.0, 0.0, 0.0, 0.0, 0.0)",-0.092032,0.087116,0.160286,"(0.0, 0.0, 0.0, 0.0, 0.0, 0.0, 0.0, 0.0, 0.0)",2.071,0.544,-9.635,"(0.0, 0.0, 0.0, 0.0, 0.0, 0.0, 0.0, 0.0, 0.0)",0,0,0,imu1_frame,0.2145,0.0799,0.4044,"(0.0, 0.0, 0.0, 0.0, 0.0, 0.0, 0.0, 0.0, 0.0)"
